time,seconds_elapsed,z,y,x
1617781899266160400,0.082160400390625,0.11492156982421875,0.11315065622329712,-0.01970234513282776
1617781899271165400,0.08716552734375,0.09577083587646484,0.10232794284820557,0.013289518654346466
1617781899276170200,0.092170166015625,0.1005716323852539,0.0753774493932724,0.09938827157020569
1617781899281205800,0.097205810546875,0.06286239624023438,0.09531933069229126,0.09094484150409698
1617781899286210600,0.10221044921875,0.030338287353515625,0.13359469175338745,0.053025983273983
1617781899291245800,0.107245849609375,0.05961894989013672,0.15260428190231323,0.03479509800672531
1617781899296281300,0.11228125,0.0367889404296875,0.15173488855361938,0.012025207281112671
1617781899301286100,0.1172861328125,0.07323646545410156,0.1281195878982544,-0.0020727068185806274
1617781899306321700,0.12232177734375,0.08527755737304688,0.02100592851638794,-0.043785206973552704
1617781899311357000,0.12735693359375,0.07028770446777344,0.015056215226650238,0.04388526827096939
1617781899316362000,0.132362060546875,0.06560230255126953,0.009736388921737671,0.007541574537754059
1617781899321397200,0.137397216796875,0.0211029052734375,-0.0021156594157218933,-0.055667661130428314
1617781899326402300,0.14240234375,0.022116661071777344,-0.004187427461147308,-0.056834034621715546
1617781899331437600,0.1474375,-0.017560958862304688,-0.0017063841223716736,-0.02883215993642807
1617781899336442400,0.1524423828125,-0.0030183792114257812,-0.0015822350978851318,-0.011482194066047668
1617781899341478000,0.157477783203125,0.03351593017578125,-0.0015919804573059082,-0.0290684774518013
1617781899346513400,0.162513427734375,0.01824474334716797,0.021221116185188293,-0.025431334972381592
1617781899351518200,0.167518310546875,-0.014583587646484375,0.05219253897666931,0.007595494389533997
1617781899356553500,0.172553466796875,0.041016578674316406,0.06136687844991684,0.0026533007621765137
1617781899361589000,0.177589111328125,0.016364097595214844,0.049638159573078156,0.027752965688705444
1617781899366624300,0.182624267578125,-0.002674102783203125,0.06372224539518356,0.010554604232311249
1617781899371629300,0.18762939453125,0.0043239593505859375,0.0590282678604126,0.01485135406255722
1617781899376634000,0.192634033203125,0.02031230926513672,0.040819667279720306,0.04892173409461975
1617781899381669600,0.197669677734375,0.04036235809326172,0.0417073592543602,-0.017467819154262543
1617781899386705000,0.202704833984375,0.01354217529296875,0.031077250838279724,-0.012193553149700165
1617781899391740400,0.207740478515625,0.029287338256835938,0.002379186451435089,-0.023344755172729492
1617781899396745200,0.2127451171875,-0.001781463623046875,0.030168674886226654,-0.03644072264432907
1617781899401750000,0.21775,0.012197494506835938,-0.007891759276390076,-0.014383658766746521
1617781899406785500,0.22278564453125,0.018796920776367188,-0.0030725449323654175,-0.018598370254039764
1617781899411820800,0.22782080078125,0.011269569396972656,0.02016357332468033,-0.029845915734767914
1617781899416856300,0.232856201171875,0.0272216796875,0.021798036992549896,-0.0034129098057746887
1617781899421891600,0.2378916015625,0.01947784423828125,0.00955875962972641,-0.005651131272315979
1617781899426866200,0.2428662109375,0.01430511474609375,0.01402294635772705,-0.01953893154859543
1617781899431871000,0.24787109375,0.009263038635253906,0.02285294234752655,0.013561375439167023
1617781899436906200,0.25290625,0.032352447509765625,0.03156398981809616,0.03653685748577118
1617781899441941800,0.257941650390625,0.001194000244140625,0.030809685587882996,0.049643464386463165
1617781899446977000,0.26297705078125,0.036208152770996094,0.016059964895248413,0.02738187462091446
1617781899451982000,0.267982177734375,0.021315574645996094,0.03211924433708191,0.022022239863872528
1617781899457017300,0.273017333984375,0.0021152496337890625,0.03601084649562836,-0.015955284237861633
1617781899462052900,0.278052978515625,0.009090423583984375,0.018840111792087555,-0.03191893547773361
1617781899467057700,0.2830576171875,-0.03558635711669922,0.006862863898277283,-0.003109581768512726
1617781899472093200,0.28809326171875,-0.004376411437988281,-0.02844015508890152,-0.01711910218000412
1617781899477098000,0.293097900390625,-0.004283905029296875,-0.027901843190193176,-0.023742325603961945
1617781899482133500,0.298133544921875,0.00988006591796875,-0.008493423461914062,-0.01850944012403488
1617781899487138300,0.30313818359375,0.01670551300048828,0.005883857607841492,-0.006479859352111816
1617781899492143000,0.30814306640625,-0.025857925415039062,-0.005987547338008881,-0.020467005670070648
1617781899497178600,0.3131787109375,0.007513999938964844,0.015175923705101013,0.0034278184175491333
1617781899502183400,0.318183349609375,-0.011412620544433594,0.0005663782358169556,0.000982433557510376
1617781899507188200,0.323188232421875,-0.004160881042480469,0.0051383525133132935,-0.006154410541057587
1617781899512254200,0.328254150390625,0.0029687881469726562,0.021445930004119873,0.012827634811401367
1617781899517289700,0.333289794921875,0.014673233032226562,0.0069432854652404785,0.022178761661052704
1617781899522294500,0.33829443359375,0.021454811096191406,0.03024028241634369,0.021752215921878815
1617781899527299300,0.34329931640625,-0.0000896453857421875,0.010831080377101898,0.007271327078342438
1617781899532334800,0.3483349609375,-0.007151603698730469,-0.008257754147052765,-0.035154908895492554
1617781899537370000,0.3533701171875,0.011809349060058594,0.003642059862613678,-0.03694479912519455
1617781899542405600,0.358405517578125,0.016307830810546875,-0.012985952198505402,-0.03395157307386398
1617781899547441000,0.36344091796875,0.004273414611816406,0.0013350620865821838,-0.01925043761730194
1617781899552415500,0.36841552734375,-0.007580757141113281,-0.008027829229831696,-0.011848166584968567
1617781899557450800,0.37345068359375,-0.005103111267089844,-0.01722703129053116,-0.021017462015151978
1617781899562486300,0.378486328125,0.03033447265625,-0.0052483826875686646,-0.02069326490163803
1617781899567521500,0.383521484375,-0.014918327331542969,-0.00038754940032958984,-0.010970212519168854
1617781899572526600,0.388526611328125,0.008885383605957031,-0.01225636899471283,0.010410062968730927
1617781899577531400,0.393531494140625,-0.0006856918334960938,0.03277069330215454,0.014918528497219086
1617781899582566700,0.398566650390625,-0.0030345916748046875,0.001681990921497345,-0.004198908805847168
1617781899587571700,0.40357177734375,0.018242835998535156,0.020565390586853027,0.007698312401771545
1617781899592607000,0.40860693359375,0.008551597595214844,0.036862969398498535,0.017054885625839233
1617781899597642500,0.413642578125,-0.03877544403076172,0.026958025991916656,0.005000300705432892
1617781899602647300,0.418647216796875,-0.019351959228515625,0.014772452414035797,0.004848986864089966
1617781899607652000,0.423652099609375,0.013978004455566406,0.002741605043411255,0.014151930809020996
1617781899612687600,0.4286875,0.006699562072753906,-0.011398091912269592,-0.009609632194042206
1617781899617723000,0.433722900390625,0.008975028991699219,-0.034753963351249695,-0.007096678018569946
1617781899622758400,0.43875830078125,0.006493568420410156,0.0036661773920059204,0.007162079215049744
1617781899627794000,0.4437939453125,-0.029043197631835938,-0.010438099503517151,-0.0023258402943611145
1617781899632798700,0.448798828125,-0.016846656799316406,0.008532904088497162,0.007092006504535675
1617781899637834000,0.453833984375,-0.0048198699951171875,-0.02936885505914688,-0.012040317058563232
1617781899642869500,0.458869384765625,-0.0047607421875,-0.0007219240069389343,-0.004797346889972687
1617781899647843800,0.46384375,0.011860847473144531,0.0015866011381149292,0.0023146718740463257
1617781899652879400,0.46887939453125,0.040099143981933594,0.00875505805015564,0.006988599896430969
1617781899657914600,0.47391455078125,0.015949249267578125,0.0063713788986206055,0.0068476200103759766
1617781899662950100,0.4789501953125,0.011040687561035156,0.01807454228401184,0.011443346738815308
1617781899667955000,0.483954833984375,0.0014410018920898438,0.013126827776432037,-0.009961999952793121
1617781899672990200,0.488990234375,-0.008047103881835938,0.01061771810054779,-0.00982445478439331
1617781899677995300,0.493995361328125,-0.010323524475097656,0.043603554368019104,0.006897225975990295
1617781899683030500,0.499030517578125,0.0063724517822265625,0.012281343340873718,0.011550895869731903
1617781899688035600,0.50403564453125,0.011036872863769531,-0.016384698450565338,-0.016992740333080292
1617781899693070800,0.50907080078125,0.01328277587890625,0.01697002351284027,-0.028638310730457306
1617781899698076000,0.514075927734375,0.008398056030273438,0.00959780067205429,0.00947260856628418
1617781899703111200,0.519111083984375,-0.0035409927368164062,0.0046863853931427,-0.002520427107810974
1617781899708146700,0.524146728515625,0.036769866943359375,-0.007202871143817902,-0.007211871445178986
1617781899713182000,0.529181884765625,0.015047073364257812,0.02602475881576538,0.002325206995010376
1617781899718186800,0.534186767578125,-0.0064296722412109375,0.032795876264572144,0.00938194990158081
1617781899723222300,0.53922216796875,-0.025313377380371094,0.006454788148403168,-0.028594650328159332
1617781899728227000,0.54422705078125,-0.008472442626953125,0.015763618052005768,0.004961475729942322
1617781899733262600,0.5492626953125,-0.008385658264160156,0.034531526267528534,0.0001119375228881836
1617781899738297900,0.5542978515625,-0.0059299468994140625,0.03174414485692978,0.016680262982845306
1617781899743303000,0.559302978515625,-0.012972831726074219,0.02189953625202179,-0.011806495487689972
1617781899748338200,0.564338134765625,-0.005743980407714844,0.019347257912158966,0.0025744885206222534
1617781899753343200,0.56934326171875,0.03462409973144531,0.02393701672554016,0.00971243530511856
1617781899758378500,0.57437841796875,0.029541969299316406,-0.004738762974739075,-0.004502348601818085
1617781899763383300,0.57938330078125,0.0031747817993164062,0.00968211144208908,-0.023392699658870697
1617781899768418800,0.584418701171875,0.005517005920410156,-0.0046364739537239075,-0.018376879394054413
1617781899773423600,0.589423583984375,-0.025371551513671875,0.01913343369960785,-0.01805274188518524
1617781899778428700,0.5944287109375,-0.00853729248046875,0.01896640658378601,0.0034559741616249084
1617781899783464000,0.5994638671875,0.03899574279785156,0.021149925887584686,0.020060203969478607
1617781899788499500,0.60449951171875,0.012542724609375,0.016219645738601685,-0.008570946753025055
1617781899793534700,0.60953466796875,0.02190876007080078,0.03032609075307846,-0.003776267170906067
1617781899798570200,0.6145703125,0.01222991943359375,0.020542912185192108,0.03180829435586929
1617781899803544600,0.619544677734375,0.016854286193847656,-0.005730569362640381,0.010218791663646698
1617781899808579800,0.624579833984375,0.016704559326171875,0.01803445816040039,0.0007040351629257202
1617781899813615400,0.629615478515625,-0.0000514984130859375,0.02730666846036911,-0.0038847774267196655
1617781899818650600,0.634650634765625,0.004696846008300781,-0.00623089075088501,0.0010087639093399048
1617781899823655700,0.63965576171875,-0.016702651977539062,-0.010890841484069824,-0.020390205085277557
1617781899828691000,0.64469091796875,-0.014184951782226562,-0.0011558383703231812,-0.01774132251739502
1617781899833726500,0.6497265625,0.0025472640991210938,-0.008235782384872437,0.003819480538368225
1617781899838731300,0.654731201171875,0.00252532958984375,0.01079578697681427,-0.055507510900497437
1617781899843766800,0.659766845703125,0.038123130798339844,0.020229607820510864,-0.028854653239250183
1617781899848771600,0.664771484375,0.02355194091796875,-0.008316867053508759,0.01886463165283203
1617781899853776400,0.6697763671875,-0.012263298034667969,-0.010639064013957977,-0.02174697071313858
1617781899858812000,0.67481201171875,0.009219169616699219,-0.010644689202308655,0.0046243816614151
1617781899863847200,0.67984716796875,-0.009862899780273438,-0.0034171193838119507,0.00460796058177948
1617781899868882700,0.684882568359375,-0.0026540756225585938,0.0037494227290153503,-0.01917656511068344
1617781899873887500,0.689887451171875,-0.016869544982910156,-0.001099228858947754,-0.009622171521186829
1617781899878892500,0.694892578125,-0.00724029541015625,-0.013034209609031677,0.009314261376857758
1617781899883927800,0.699927734375,-0.007180213928222656,0.0012608692049980164,0.011555306613445282
1617781899888963300,0.70496337890625,-0.023734092712402344,0.0179276242852211,0.01617954671382904
1617781899893998600,0.70999853515625,0.014444351196289062,0.03209575265645981,0.04928482323884964
1617781899899003400,0.71500341796875,-0.026031494140625,-0.0013272538781166077,-0.015243008732795715
1617781899904008400,0.720008544921875,-0.04242897033691406,0.0010186508297920227,0.020473435521125793
1617781899909043700,0.725043701171875,-0.013582229614257812,0.01995929330587387,0.017870329320430756
1617781899914079200,0.730079345703125,0.015008926391601562,-0.008664190769195557,-0.013099811971187592
1617781899919084000,0.735083984375,0.010148048400878906,-0.022820934653282166,-0.00581679493188858
1617781899924089000,0.740089111328125,-0.011317253112792969,0.008221924304962158,-0.0033716782927513123
1617781899929094000,0.745093994140625,-0.01122283935546875,-0.003766007721424103,-0.02946534752845764
1617781899934129200,0.750129150390625,-0.004001617431640625,-0.017961882054805756,-0.026900790631771088
1617781899939164700,0.75516455078125,0.015021324157714844,0.0035393312573432922,-0.0004856586456298828
1617781899944200000,0.760199951171875,-0.013581275939941406,-0.003657698631286621,-0.009988367557525635
1617781899949235500,0.7652353515625,-0.003978729248046875,0.010585717856884003,-0.002965964376926422
1617781899954240300,0.770240234375,0.012683868408203125,0.019943416118621826,0.004113636910915375
1617781899959245300,0.775245361328125,0.012578964233398438,0.01981297880411148,-0.005491204559803009
1617781899964250000,0.78025,-0.013642311096191406,0.010222144424915314,0.03485363721847534
1617781899969255000,0.7852548828125,-0.004039764404296875,0.021959610283374786,-0.005875229835510254
1617781899974321000,0.79032080078125,0.0007448196411132812,0.017010599374771118,-0.005856916308403015
1617781899979325700,0.79532568359375,0.02685546875,-0.00915997102856636,0.001351282000541687
1617781899984361200,0.800361328125,0.014752388000488281,0.0028312131762504578,-0.0009472519159317017
1617781899989396500,0.805396484375,0.005141258239746094,-0.016198255121707916,0.02522531896829605
1617781899994432000,0.810431884765625,0.0050983428955078125,-0.03035832941532135,-0.02251370996236801
1617781899999467300,0.81546728515625,0.01929473876953125,-0.0016273483633995056,-0.043696388602256775
1617781900004441900,0.82044189453125,-0.0117340087890625,-0.013506807386875153,-0.019698627293109894
1617781900009477000,0.82547705078125,-0.009259223937988281,-0.0062826573848724365,-0.019670240581035614
1617781900014482000,0.83048193359375,0.02168750762939453,-0.0061945319175720215,-0.007684975862503052
1617781900019517400,0.835517333984375,0.016754150390625,-0.013310976326465607,-0.019477486610412598
1617781900024553000,0.840552978515625,-0.018990516662597656,-0.02265026420354843,-0.0026372000575065613
1617781900029557800,0.845557861328125,0.009659767150878906,0.010768428444862366,-0.002567209303379059
1617781900034593000,0.850593017578125,-0.014162063598632812,0.00826195627450943,-0.01680424064397812
1617781900039598000,0.85559814453125,-0.01641845703125,-0.013203196227550507,0.016523174941539764
1617781900044633300,0.86063330078125,-0.03291130065917969,-0.017897717654705048,0.02350737899541855
1617781900049638400,0.865638427734375,-0.04687690734863281,-0.04145433008670807,0.03057396411895752
1617781900054643200,0.870643310546875,-0.00850677490234375,-0.026885583996772766,-0.00996439903974533
1617781900059678500,0.875678466796875,0.024806976318359375,-0.003039136528968811,-0.00745738297700882
1617781900064683500,0.88068359375,-0.0062694549560546875,0.011147819459438324,-0.014448918402194977
1617781900069718800,0.88571875,0.03890514373779297,0.020395785570144653,-0.02627524733543396
1617781900074754300,0.89075439453125,0.017200469970703125,0.02973955124616623,-0.016678154468536377
1617781900079759000,0.895759033203125,0.014683723449707031,0.012794934213161469,-0.042843230068683624
1617781900084825000,0.9008251953125,0.035943031311035156,0.01496966928243637,-0.040299683809280396
1617781900089860400,0.9058603515625,-0.011853218078613281,0.03380811586976051,0.016833364963531494
1617781900094895900,0.910895751953125,0.0001239776611328125,0.019204843789339066,-0.05693797022104263
1617781900099900700,0.915900634765625,0.007250785827636719,0.014307640492916107,-0.06364516913890839
1617781900104905700,0.92090576171875,0.0095672607421875,0.00001582503318786621,0.07457004487514496
1617781900109941000,0.92594091796875,0.011861801147460938,-0.011875379830598831,0.09061245620250702
1617781900114945800,0.93094580078125,0.02837657928466797,-0.002391912043094635,0.03286771476268768
1617781900119981300,0.935981201171875,-0.005105018615722656,-0.00008952245116233826,0.04454575479030609
1617781900125016600,0.9410166015625,-0.00743865966796875,-0.0072565749287605286,-0.003260381519794464
1617781900130052000,0.946052001953125,0.013990402221679688,-0.023773573338985443,0.018075980246067047
1617781900135057000,0.951056884765625,-0.021732330322265625,-0.004678171128034592,-0.008170202374458313
1617781900140062000,0.95606201171875,-0.000186920166015625,0.007170133292675018,-0.012677595019340515
1617781900145066800,0.961066650390625,-0.00018596649169921875,0.016452379524707794,-0.024402916431427002
1617781900150071600,0.966071533203125,0.014055252075195312,0.011600513011217117,0.008962102234363556
1617781900155107000,0.971107177734375,0.03056812286376953,0.013890307396650314,0.008882656693458557
1617781900160142300,0.976142333984375,0.035065650939941406,0.023235343396663666,-0.012666963040828705
1617781900165177900,0.981177734375,-0.0055980682373046875,0.020677655935287476,-0.003036797046661377
1617781900170182700,0.9861826171875,-0.007927894592285156,-0.010377693921327591,-0.0005626678466796875
1617781900175218200,0.99121826171875,0.02538013458251953,-0.005712248384952545,0.0042776986956596375
1617781900180223000,0.996222900390625,0.00142669677734375,0.01573725789785385,0.004263371229171753
1617781900185227800,1.001227783203125,0.027530670166015625,-0.0009200200438499451,0.011505819857120514
1617781900190263300,1.00626318359375,0.003559112548828125,-0.0033569112420082092,0.03284826874732971
1617781900195298600,1.011298583984375,0.0035295486450195312,0.013294778764247894,0.030166931450366974
1617781900200303600,1.0163037109375,0.03674602508544922,-0.01765948161482811,0.006012521684169769
1617781900205369600,1.02136962890625,0.02693939208984375,-0.012871265411376953,-0.015619486570358276
1617781900210404900,1.02640478515625,0.017212867736816406,-0.0056775473058223724,-0.018000133335590363
1617781900215409700,1.03140966796875,-0.0019207000732421875,0.0014293491840362549,-0.07489268481731415
1617781900220445200,1.036445068359375,-0.020895004272460938,0.12250915169715881,-0.33543163537979126
1617781900225450000,1.041449951171875,-0.03971099853515625,0.2687404751777649,-0.9831756949424744
1617781900230455000,1.046455078125,0.000980377197265625,0.2173982858657837,-1.3641064167022705
1617781900235490300,1.051490234375,-0.006175041198730469,0.07336986064910889,-1.466843843460083
1617781900240525800,1.05652587890625,-0.04186534881591797,0.0563582181930542,-1.5168263912200928
1617781900245561000,1.06156103515625,-0.024985313415527344,-0.010733388364315033,-1.390261173248291
1617781900250596600,1.0665966796875,-0.0010395050048828125,-0.1012064516544342,-1.1237447261810303
1617781900255601400,1.071601318359375,-0.012952804565429688,-0.15320022404193878,-0.7036682963371277
1617781900260606200,1.076606201171875,0.0037975311279296875,-0.1596517562866211,-0.19274339079856873
1617781900265641700,1.081641845703125,-0.010525703430175781,-0.07068891823291779,0.351570725440979
1617781900270677000,1.086677001953125,0.0062122344970703125,0.19645534455776215,0.43569454550743103
1617781900275712500,1.09171240234375,-0.00096893310546875,0.28118079900741577,0.16429054737091064
1617781900280717300,1.09671728515625,-0.015254020690917969,0.20580002665519714,-0.07007737457752228
1617781900285752800,1.1017529296875,-0.0032758712768554688,0.19981670379638672,-0.31761908531188965
1617781900290727200,1.10672705078125,-0.036622047424316406,0.1462368667125702,-0.5521346926689148
1617781900295732000,1.11173193359375,-0.03644752502441406,0.11912412941455841,-0.6282827258110046
1617781900300798000,1.1167978515625,-0.019583702087402344,0.13754409551620483,-0.6255049705505371
1617781900305802800,1.121802734375,-0.005200386047363281,0.019962329417467117,-0.7037226557731628
1617781900310838300,1.12683837890625,-0.017081260681152344,0.0029767826199531555,-0.7865272760391235
1617781900315843000,1.131843017578125,-0.02892303466796875,-0.021062280982732773,-0.8735623359680176
1617781900320878600,1.136878662109375,0.021256446838378906,0.005084112286567688,-1.0675435066223145
1617781900325913900,1.141913818359375,0.01877307891845703,0.02865399792790413,-1.2511236667633057
1617781900330919000,1.1469189453125,0.013917922973632812,0.042656153440475464,-1.5245602130889893
1617781900335954200,1.1519541015625,-0.03142261505126953,0.006647437810897827,-1.7229688167572021
1617781900340959000,1.156958984375,-0.019354820251464844,-0.045734647661447525,-1.8060635328292847
1617781900345964000,1.161964111328125,-0.026419639587402344,-0.06934930384159088,-1.8316450119018555
1617781900350999300,1.166999267578125,0.0023021697998046875,-0.14757101237773895,-1.8786410093307495
1617781900356004400,1.17200439453125,-0.0072479248046875,-0.2755742073059082,-1.7370765209197998
1617781900361039600,1.17703955078125,-0.009601593017578125,-0.34580397605895996,-1.5629616975784302
1617781900366075100,1.1820751953125,-0.004790306091308594,-0.4467701315879822,-1.3970324993133545
1617781900371110400,1.1871103515625,-0.009540557861328125,-0.4304431974887848,-1.2294921875
1617781900376146000,1.19214599609375,-0.021409988403320312,-0.39029940962791443,-1.134131908416748
1617781900381150700,1.197150634765625,-0.03324413299560547,-0.31468504667282104,-1.1083673238754272
1617781900386155500,1.202155517578125,0.009815216064453125,-0.20367498695850372,-1.1949206590652466
1617781900391191000,1.20719091796875,-0.0450592041015625,-0.09068281948566437,-1.1617395877838135
1617781900396195800,1.21219580078125,0.026643753051757812,-0.021183378994464874,-1.052406668663025
1617781900401231400,1.2172314453125,0.016983985900878906,0.11465533077716827,-0.9031776189804077
1617781900406236200,1.222236083984375,-0.014071464538574219,0.27140069007873535,-0.7712048888206482
1617781900411271700,1.227271728515625,0.02412128448486328,0.2796729505062103,-0.8018483519554138
1617781900416307000,1.232306884765625,-0.02127838134765625,0.33304470777511597,-0.961041271686554
1617781900421342500,1.237342529296875,-0.0712575912475586,0.4529603123664856,-1.1744468212127686
1617781900426377700,1.242377685546875,-0.07334709167480469,0.46058693528175354,-1.2870572805404663
1617781900431382800,1.2473828125,0.008021354675292969,0.36559563875198364,-1.4180052280426025
1617781900436387600,1.2523876953125,-0.02301502227783203,0.23747511208057404,-1.462591528892517
1617781900441392400,1.257392333984375,-0.0014715194702148438,0.07891274243593216,-1.4237738847732544
1617781900446428000,1.262427978515625,-0.07061195373535156,-0.03158864006400108,-1.358839988708496
1617781900451463200,1.267463134765625,-0.0011882781982421875,-0.11304080486297607,-1.2107079029083252
1617781900456498700,1.272498779296875,-0.017874717712402344,-0.17034733295440674,-0.8817899227142334
1617781900461503500,1.27750341796875,-0.05119132995605469,-0.2677423655986786,-0.7998721599578857
1617781900466539000,1.2825390625,-0.02237987518310547,-0.3027717173099518,-0.8095301985740662
1617781900471543800,1.287543701171875,0.03254127502441406,-0.19462886452674866,-0.8216544389724731
1617781900476579300,1.292579345703125,-0.008151054382324219,-0.0966523140668869,-0.6953052878379822
1617781900481614600,1.297614501953125,0.0371856689453125,-0.00612611323595047,-0.6981858611106873
1617781900486619400,1.302619384765625,-0.08698368072509766,0.11267675459384918,-0.669819712638855
1617781900491655000,1.307655029296875,0.04450798034667969,0.14064426720142365,-0.49159950017929077
1617781900496659700,1.31265966796875,-0.010526657104492188,0.18984518945217133,-0.2684628963470459
1617781900501664800,1.317664794921875,-0.060568809509277344,0.2271968573331833,-0.3156510591506958
1617781900506669600,1.322669677734375,-0.02455902099609375,0.22629642486572266,-0.5200735330581665
1617781900511735600,1.327735595703125,0.04229450225830078,0.22767826914787292,-0.278003454208374
1617781900516770800,1.332770751953125,0.061206817626953125,0.13360518217086792,0.18248994648456573
1617781900521806300,1.337806396484375,0.058567047119140625,0.07331043481826782,0.6171911954879761
1617781900526841600,1.342841552734375,0.044005393981933594,0.03944839537143707,0.9521732330322266
1617781900531816000,1.34781591796875,-0.034880638122558594,0.012690365314483643,0.9522349834442139
1617781900536851500,1.3528515625,0.04633331298828125,-0.011503256857395172,0.9929481148719788
1617781900541886700,1.35788671875,0.0032176971435546875,-0.009352084249258041,0.8616580367088318
1617781900546922200,1.362922119140625,-0.008741378784179688,0.014362398535013199,0.7234774231910706
1617781900551957500,1.36795751953125,0.0008258819580078125,0.021250110119581223,0.44758301973342896
1617781900556932000,1.37293212890625,0.02227497100830078,0.04012781009078026,0.22773006558418274
1617781900561937000,1.37793701171875,-0.035065650939941406,0.035151682794094086,0.09706657379865646
1617781900566972200,1.38297216796875,0.010386466979980469,0.08736179769039154,-0.2811827063560486
1617781900572007700,1.388007568359375,-0.0063686370849609375,0.09640008956193924,-0.5099964737892151
1617781900577043000,1.39304296875,0.036591529846191406,0.11732493340969086,-0.7593359351158142
1617781900582048000,1.398048095703125,-0.0184173583984375,0.13568010926246643,-0.8980545401573181
1617781900587083300,1.403083251953125,-0.035063743591308594,0.09906992316246033,-0.7428175210952759
1617781900592118800,1.408118896484375,-0.0015430450439453125,-0.08771701157093048,-0.44970250129699707
1617781900597154000,1.413154052734375,0.031853675842285156,-0.25709378719329834,-0.08378266543149948
1617781900602159000,1.4181591796875,-0.04222297668457031,-0.3997499346733093,0.19919385015964508
1617781900607194400,1.4231943359375,-0.054017066955566406,-0.3868138790130615,0.43797412514686584
1617781900612230000,1.42822998046875,0.02011394500732422,-0.3285776674747467,0.8382362127304077
1617781900617234700,1.433234619140625,0.010498046875,-0.291918009519577,1.3588591814041138
1617781900622270200,1.438270263671875,0.010450363159179688,-0.18833822011947632,1.4767711162567139
1617781900627275000,1.44327490234375,0.017548561096191406,-0.10186273604631424,1.4605563879013062
1617781900632310500,1.448310546875,0.05803871154785156,-0.0704953745007515,1.7044636011123657
1617781900637315300,1.4533154296875,0.05305004119873047,0.08717652410268784,1.571122169494629
1617781900642350600,1.4583505859375,-0.05927562713623047,0.23957037925720215,1.3021146059036255
1617781900647386000,1.46338623046875,-0.011358261108398438,0.3461873531341553,1.0099706649780273
1617781900652391000,1.468390869140625,0.0053863525390625,0.46666663885116577,0.8380792140960693
1617781900657426400,1.473426513671875,0.05068778991699219,0.5056151747703552,0.8578677773475647
1617781900662431200,1.47843115234375,0.017098426818847656,0.5823042988777161,0.7749995589256287
1617781900667466800,1.483466796875,0.03851795196533203,0.7231805324554443,0.5659098625183105
1617781900672471600,1.488471435546875,0.012133598327636719,0.7371104955673218,0.4292174279689789
1617781900677476400,1.493476318359375,0.00015163421630859375,0.6412876844406128,0.4316819906234741
1617781900682481400,1.4984814453125,0.05025196075439453,0.4766554832458496,0.7183113098144531
1617781900687486200,1.503486328125,0.011908531188964844,0.2623908221721649,0.8848642706871033
1617781900692552200,1.50855224609375,0.0500335693359375,0.07999064028263092,1.0746381282806396
1617781900697587500,1.51358740234375,0.040309906005859375,-0.06367688626050949,1.3399275541305542
1617781900702623000,1.518623046875,0.013924598693847656,-0.13050292432308197,1.4945441484451294
1617781900707627800,1.523627685546875,0.04967308044433594,-0.11132163554430008,1.5481666326522827
1617781900712663300,1.528663330078125,0.01848125457763672,-0.0611407645046711,1.276946783065796
1617781900717698600,1.533698486328125,0.0279693603515625,-0.013446260243654251,1.1002804040908813
1617781900722703400,1.538703369140625,-0.03655815124511719,0.06295398622751236,0.902887761592865
1617781900727708400,1.54370849609375,-0.01972198486328125,0.11289894580841064,0.7301769852638245
1617781900732743700,1.54874365234375,0.03998851776123047,0.16745321452617645,0.5530898571014404
1617781900737779200,1.553779296875,0.03271007537841797,0.15986080467700958,0.47178900241851807
1617781900742814500,1.558814453125,0.044526100158691406,0.1761341691017151,0.3737577497959137
1617781900747819500,1.563819580078125,0.0014324188232421875,0.0730428695678711,0.34781020879745483
1617781900752854800,1.568854736328125,0.027679443359375,-0.08207917958498001,0.4293910562992096
1617781900757859800,1.57385986328125,-0.00104522705078125,-0.24389657378196716,0.546659529209137
1617781900762895000,1.57889501953125,-0.010588645935058594,-0.3740682303905487,0.6230416893959045
1617781900767900000,1.58389990234375,0.044338226318359375,-0.4488937556743622,0.6393178105354309
1617781900772935400,1.588935302734375,-0.02500438690185547,-0.5235210061073303,0.7439293265342712
1617781900777940200,1.593940185546875,0.0013322830200195312,-0.6003966927528381,0.8314236998558044
1617781900782945300,1.5989453125,-0.008217811584472656,-0.6196662783622742,0.9065912365913391
1617781900787980500,1.60398046875,0.02045440673828125,-0.5672850608825684,1.0673322677612305
1617781900793016000,1.60901611328125,0.015618324279785156,-0.4960976243019104,1.4184974431991577
1617781900798051300,1.61405126953125,0.04898834228515625,-0.37753939628601074,1.7090026140213013
1617781900803086800,1.6190869140625,0.02258586883544922,-0.19248339533805847,1.8265994787216187
1617781900808091600,1.624091552734375,0.022521018981933594,0.015759147703647614,1.5691272020339966
1617781900813127200,1.629127197265625,0.048709869384765625,0.18033280968666077,1.2121667861938477
1617781900818132000,1.634132080078125,0.0366363525390625,0.14139457046985626,0.9949778318405151
1617781900823167200,1.639167236328125,0.03174877166748047,0.05485736206173897,0.8074619174003601
1617781900828172300,1.64417236328125,-0.0017652511596679688,0.05927641689777374,0.47977203130722046
1617781900833177000,1.649177001953125,0.02927398681640625,0.13050776720046997,0.28208065032958984
1617781900838212600,1.654212646484375,0.01963329315185547,0.1252593994140625,-0.039078012108802795
1617781900843247900,1.659247802734375,-0.020995140075683594,0.0984131246805191,-0.2683085799217224
1617781900848283400,1.664283447265625,0.0005512237548828125,0.052720069885253906,-0.0671406015753746
1617781900853288200,1.6692880859375,0.03158378601074219,-0.05478643998503685,0.2551167607307434
1617781900858293000,1.67429296875,0.021936416625976562,-0.1954183280467987,0.8698348999023438
1617781900863328500,1.67932861328125,-0.006770133972167969,-0.23067796230316162,1.4585837125778198
1617781900868363800,1.68436376953125,0.019510269165039062,-0.24908863008022308,1.8116801977157593
1617781900873399300,1.6893994140625,0.009917259216308594,-0.16234838962554932,1.9250680208206177
1617781900878373600,1.69437353515625,0.055237770080566406,-0.016232725232839584,1.7827386856079102
1617781900883378400,1.69937841796875,0.024044036865234375,0.005306001752614975,1.511816143989563
1617781900888414000,1.7044140625,0.02636241912841797,-0.004274744540452957,1.3469698429107666
1617781900893418800,1.709418701171875,0.033451080322265625,-0.08780718594789505,1.111055850982666
1617781900898454300,1.714454345703125,0.021411895751953125,-0.20460602641105652,0.9403035640716553
1617781900903489500,1.719489501953125,-0.009682655334472656,-0.2492825984954834,0.7486656308174133
1617781900908494600,1.72449462890625,0.0070705413818359375,-0.2507683336734772,0.7198460102081299
1617781900913499400,1.72949951171875,0.016594886779785156,-0.2641243040561676,0.7984123826026917
1617781900918565400,1.7345654296875,0.0046253204345703125,-0.21066166460514069,0.9292758703231812
1617781900923570200,1.739570068359375,-0.0025472640991210938,-0.11936694383621216,1.1648104190826416
1617781900928605700,1.744605712890625,0.009408950805664062,-0.004551161080598831,1.3041285276412964
1617781900933610500,1.749610595703125,0.059515953063964844,0.13870032131671906,1.2258235216140747
1617781900938615300,1.754615234375,0.02592182159423828,0.19333410263061523,1.0738341808319092
1617781900943681300,1.759681396484375,-0.002796173095703125,0.15465621650218964,0.9151538610458374
1617781900948686000,1.76468603515625,0.006771087646484375,0.08493049442768097,0.7474367618560791
1617781900953721600,1.7697216796875,0.030626296997070312,-0.01555543765425682,0.6567198038101196
1617781900958726400,1.774726318359375,-0.0052738189697265625,0.03238240256905556,0.5710512399673462
1617781900963762000,1.779761962890625,0.001911163330078125,0.04680197313427925,0.5190866589546204
1617781900968797200,1.784797119140625,0.009075164794921875,0.06124400720000267,0.4338921904563904
1617781900973832700,1.789832763671875,-0.0005006790161132812,0.04432503506541252,0.3440501391887665
1617781900978837500,1.79483740234375,-0.0028839111328125,0.08478928357362747,0.2903379797935486
1617781900983842300,1.79984228515625,0.011444091796875,0.058331213891506195,0.3514062166213989
1617781900988877800,1.8048779296875,-0.017221450805664062,0.010301198810338974,0.46244344115257263
1617781900993913000,1.8099130859375,-0.007625579833984375,-0.05904540419578552,0.33661890029907227
1617781900998948600,1.814948486328125,0.011494636535644531,-0.0684606283903122,0.17309820652008057
1617781901003953400,1.819953369140625,-0.00046443939208984375,-0.18767541646957397,0.2631475627422333
1617781901008958500,1.82495849609375,-0.0028514862060546875,-0.24454933404922485,0.24804525077342987
1617781901013993700,1.82999365234375,0.0067119598388671875,-0.2868417501449585,0.26167935132980347
1617781901019029200,1.835029296875,0.03771686553955078,-0.3147100806236267,0.42092418670654297
1617781901024064500,1.840064453125,0.03999900817871094,-0.2854626178741455,0.5414651036262512
1617781901029069300,1.8450693359375,0.0016946792602539062,-0.20838165283203125,0.4897769093513489
1617781901034074400,1.850074462890625,0.016008377075195312,-0.09565027058124542,0.28543707728385925
1617781901039109600,1.855109619140625,0.015964508056640625,-0.0333707258105278,0.08403301239013672
1617781901044114700,1.86011474609375,0.018309593200683594,0.00012091174721717834,-0.011755675077438354
1617781901049119500,1.865119384765625,0.0493011474609375,-0.011825364083051682,0.1935347020626068
1617781901054155000,1.870155029296875,0.049164772033691406,-0.08588854968547821,0.505739688873291
1617781901059159800,1.875159912109375,0.039473533630371094,-0.1549282968044281,0.6499567031860352
1617781901064195000,1.880195068359375,-0.005997657775878906,-0.20940782129764557,0.3951016068458557
1617781901069230600,1.885230712890625,-0.008371353149414062,-0.16579803824424744,0.04546605050563812
1617781901074265900,1.890265869140625,0.025086402893066406,-0.1270764321088791,-0.009690672159194946
1617781901079209700,1.895209716796875,0.0035314559936523438,-0.04311997443437576,-0.0025012046098709106
1617781901084245200,1.900245361328125,0.020231246948242188,0.00956340879201889,0.004641830921173096
1617781901089311200,1.905311279296875,0.06315135955810547,0.009547948837280273,-0.0001802891492843628
1617781901094346500,1.910346435546875,0.012837409973144531,-0.021619081497192383,-0.03598065674304962
1617781901099351300,1.915351318359375,0.005652427673339844,-0.02155488356947899,0.009410873055458069
1617781901104386800,1.92038671875,0.012787818908691406,-0.01663793995976448,-0.009603574872016907
1617781901109422300,1.92542236328125,-0.0015716552734375,0.004785824567079544,-0.002181723713874817
1617781901114427100,1.93042724609375,0.01752471923828125,-0.021607015281915665,0.0005175173282623291
1617781901119432000,1.935431884765625,0.022249221801757812,-0.03840075805783272,0.01752917468547821
1617781901124498000,1.940497802734375,0.007866859436035156,-0.00018760934472084045,0.02477291226387024
1617781901129533200,1.945533203125,-0.008884429931640625,0.014043662697076797,0.039283111691474915
1617781901134538200,1.950538330078125,0.007859230041503906,0.030615054070949554,0.013140872120857239
1617781901139573500,1.955573486328125,0.014987945556640625,0.01614079251885414,0.03473508358001709
1617781901144609000,1.960609130859375,0.029280662536621094,-0.026965852826833725,0.051531702280044556
1617781901149644300,1.965644287109375,0.0077114105224609375,-0.0173555426299572,0.04204373061656952
1617781901154649300,1.9706494140625,-0.006648063659667969,-0.005461778491735458,0.04683665931224823
1617781901159684600,1.9756845703125,0.019634246826171875,0.003940839320421219,0.04683889448642731
1617781901164689700,1.980689697265625,0.014801025390625,0.01107366755604744,0.07313406467437744
1617781901169725000,1.985724853515625,0.0028295516967773438,-0.010421771556138992,0.07062458992004395
1617781901174699300,1.99069921875,0.014752388000488281,0.015840057283639908,0.05618831515312195
1617781901179704300,1.995704345703125,0.0075588226318359375,0.006230238825082779,-0.04415799677371979
1617781901184739600,2.000739501953125,0.009913444519042969,0.015712138265371323,-0.0965900868177414
1617781901189775000,2.005775146484375,0.0027360916137695312,0.032383326441049576,-0.07727417349815369
1617781901194810400,2.010810302734375,0.007512092590332031,-0.015268225222826004,0.006346508860588074
1617781901199846000,2.015845947265625,-0.0020551681518554688,0.006258193403482437,0.023006945848464966
1617781901204850700,2.0208505859375,-0.009167671203613281,-0.001042921096086502,-0.01981818675994873
1617781901209886200,2.02588623046875,-0.009093284606933594,0.022716183215379715,-0.0243053138256073
1617781901214921500,2.03092138671875,0.012346267700195312,-0.005994394421577454,0.0021134763956069946
1617781901219957000,2.03595703125,0.021742820739746094,-0.010766040533781052,-0.012006789445877075
1617781901224961800,2.0409619140625,0.02868366241455078,-0.013042647391557693,-0.009302213788032532
1617781901229997000,2.0459970703125,0.009436607360839844,0.008389893919229507,-0.020936042070388794
1617781901235002000,2.051002197265625,-0.0025081634521484375,-0.020137719810009003,0.031623631715774536
1617781901240007000,2.0560068359375,-0.016742706298828125,-0.017608925700187683,0.033834829926490784
1617781901245042400,2.06104248046875,0.007152557373046875,0.011066563427448273,0.033600613474845886
1617781901250077700,2.06607763671875,0.030832290649414062,0.001612938940525055,0.01208050549030304
1617781901255113200,2.07111328125,0.00919342041015625,0.008684992790222168,-0.009379521012306213
1617781901260087600,2.076087646484375,0.009115219116210938,-0.005641348659992218,0.014512613415718079
1617781901265122800,2.081122802734375,0.004303932189941406,0.003982029855251312,-0.0022536367177963257
1617781901270158300,2.086158447265625,-0.014736175537109375,-0.0008702091872692108,-0.0022918730974197388
1617781901275193600,2.091193603515625,0.018630027770996094,0.008494358509778976,0.02384011447429657
1617781901280198700,2.09619873046875,0.001861572265625,-0.008308880031108856,0.002219289541244507
1617781901285203500,2.101203369140625,0.011335372924804688,-0.008121747523546219,-0.02399824559688568
1617781901290239000,2.106239013671875,0.0017557144165039062,-0.007938507944345474,-0.012018144130706787
1617781901295274200,2.111274169921875,0.008852958679199219,0.00154847651720047,-0.0024196356534957886
1617781901300309800,2.116309814453125,-0.014959335327148438,-0.010340888053178787,0.011719360947608948
1617781901305345000,2.121344970703125,0.008909225463867188,-0.022121604532003403,-0.0003659576177597046
1617781901310350000,2.12635009765625,0.032593727111816406,-0.017200104892253876,0.01614309847354889
1617781901315355000,2.13135498046875,0.0346832275390625,-0.0005100592970848083,-0.003064468502998352
1617781901320390100,2.13639013671875,0.022531509399414062,-0.014709297567605972,0.015894010663032532
1617781901325425700,2.14142578125,0.015215873718261719,-0.021729011088609695,0.03714907169342041
1617781901330430500,2.146430419921875,0.022214889526367188,0.0044242702424526215,0.003632083535194397
1617781901335466000,2.151466064453125,-0.018340110778808594,0.006750844419002533,0.03917650878429413
1617781901340470800,2.156470703125,0.03642463684082031,0.027993641793727875,0.043492719531059265
1617781901345506300,2.16150634765625,0.021884918212890625,0.011157788336277008,0.00026313960552215576
1617781901350541600,2.16654150390625,-0.004413604736328125,0.018254943192005157,0.00023028254508972168
1617781901355546400,2.17154638671875,-0.009128570556640625,0.003962159156799316,0.005027025938034058
1617781901360551400,2.176551513671875,-0.009053230285644531,0.0014606006443500519,0.01452036201953888
1617781901365586700,2.181586669921875,0.0028972625732421875,0.0037830956280231476,-0.002089262008666992
1617781901370622200,2.186622314453125,0.0076084136962890625,-0.0034426450729370117,-0.01866459846496582
1617781901375657500,2.191657470703125,-0.011446952819824219,-0.005634751170873642,0.0006327629089355469
1617781901380631800,2.1966318359375,0.002899169921875,-0.007901091128587723,-0.018186524510383606
1617781901385667300,2.201667236328125,0.0052490234375,-0.010277621448040009,-0.013198956847190857
1617781901390702800,2.206702880859375,-0.0019245147705078125,0.023021284490823746,0.008417695760726929
1617781901395738000,2.211738037109375,-0.0066623687744140625,0.027513552457094193,0.020362883806228638
1617781901400773600,2.216773681640625,0.017131805419921875,0.0058517009019851685,-0.00814741849899292
1617781901405778400,2.2217783203125,0.03597736358642578,0.015315957367420197,0.00389765202999115
1617781901410783200,2.226783203125,0.014307975769042969,0.008071169257164001,-0.003084912896156311
1617781901415818800,2.23181884765625,-0.011929512023925781,0.04118088260293007,-0.005386874079704285
1617781901420854000,2.23685400390625,0.023789405822753906,0.01473347470164299,0.01364414393901825
1617781901425859000,2.241859130859375,-0.00252532958984375,0.028964444994926453,0.025378286838531494
1617781901430894300,2.246894287109375,-0.01675891876220703,0.014497175812721252,0.029966503381729126
1617781901435899400,2.2518994140625,-0.007115364074707031,-0.009274318814277649,0.055803969502449036
1617781901440934700,2.2569345703125,-0.028423309326171875,-0.01401558518409729,0.02451840043067932
1617781901445970200,2.26197021484375,-0.002071380615234375,0.00037647783756256104,0.01256154477596283
1617781901450975000,2.26697509765625,0.026437759399414062,0.0003842003643512726,0.02915942668914795
1617781901456010200,2.27201025390625,0.030965805053710938,0.009816441684961319,-0.013704508543014526
1617781901461015300,2.277015380859375,-0.007293701171875,-0.018878702074289322,-0.020447060465812683
1617781901466050600,2.282050537109375,-0.030973434448242188,-0.023411113768815994,-0.0036931633949279785
1617781901471086000,2.287086181640625,-0.0045986175537109375,-0.004240598529577255,0.015375807881355286
1617781901476091000,2.2920908203125,-0.002185821533203125,-0.02321065589785576,-0.006096675992012024
1617781901481095700,2.297095703125,-0.01642322540283203,-0.0016405023634433746,0.0011800825595855713
1617781901486100700,2.302100830078125,-0.0044097900390625,-0.006428327411413193,0.036874428391456604
1617781901491136000,2.307135986328125,0.024118423461914062,0.007797900587320328,-0.0037669092416763306
1617781901496171500,2.312171630859375,0.019166946411132812,0.019622694700956345,-0.02278260886669159
1617781901501206800,2.317206787109375,0.016632080078125,-0.009074695408344269,0.005843222141265869
1617781901506242300,2.3222421875,0.0164947509765625,-0.02321615442633629,0.01522517204284668
1617781901511216600,2.327216552734375,-0.00975799560546875,-0.0064599402248859406,0.024466916918754578
1617781901516252200,2.332252197265625,0.0069370269775390625,-0.004061896353960037,0.03378710150718689
1617781901521287400,2.337287353515625,0.01875591278076172,-0.013504136353731155,0.005112379789352417
1617781901526323000,2.342322998046875,-0.005146026611328125,-0.01818496733903885,0.017111092805862427
1617781901531327700,2.34732763671875,0.004395484924316406,-0.006222426891326904,-0.013722866773605347
1617781901536332500,2.35233251953125,0.009091377258300781,0.008000966161489487,0.00557398796081543
1617781901541368000,2.3573681640625,0.01851177215576172,0.024638701230287552,-0.010766282677650452
1617781901546372900,2.362372802734375,0.006473541259765625,-0.008810378611087799,0.0015093833208084106
1617781901551408400,2.367408447265625,-0.000698089599609375,-0.008776441216468811,0.004156097769737244
1617781901556443600,2.372443603515625,-0.012577056884765625,-0.008742280304431915,0.023421645164489746
1617781901561448700,2.37744873046875,0.03262615203857422,-0.01591132953763008,-0.00720389187335968
1617781901566484000,2.38248388671875,0.0038700103759765625,-0.02761506661772728,0.012198418378829956
1617781901571488800,2.38748876953125,-0.027036666870117188,-0.02499285340309143,0.06459881365299225
1617781901576524300,2.392524169921875,-0.041069984436035156,-0.14819596707820892,0.43468600511550903
1617781901581559600,2.3975595703125,0.011503219604492188,-0.3676537871360779,0.8729006052017212
1617781901586564600,2.402564697265625,-0.012331008911132812,-0.20547789335250854,0.6304575800895691
1617781901591569400,2.4075693359375,0.0020294189453125,-0.023418448865413666,0.19999133050441742
1617781901596605000,2.41260498046875,0.0020160675048828125,-0.12295050919055939,0.00820574164390564
1617781901601640200,2.41764013671875,-0.005125999450683594,-0.2002895325422287,0.20034340023994446
1617781901606675700,2.42267578125,0.032896995544433594,-0.14639821648597717,0.46460723876953125
1617781901611680500,2.427680419921875,-0.007735252380371094,-0.11655266582965851,0.6769025921821594
1617781901616716000,2.432716064453125,0.020949363708496094,-0.10179142653942108,0.8858939409255981
1617781901621720800,2.437720947265625,0.01851177215576172,-0.10153190791606903,1.1182866096496582
1617781901626725600,2.4427255859375,0.0017518997192382812,-0.06302975118160248,1.2498245239257812
1617781901631761200,2.44776123046875,0.020856857299804688,-0.06286562234163284,1.3260836601257324
1617781901636766000,2.452765869140625,0.03037548065185547,-0.11044412106275558,1.3328880071640015
1617781901641801500,2.457801513671875,0.0183563232421875,-0.14598862826824188,1.4664260149002075
1617781901646836700,2.462836669921875,0.0278778076171875,-0.18876682221889496,1.5900989770889282
1617781901651872300,2.467872314453125,0.0134735107421875,-0.2886720597743988,1.6084160804748535
1617781901656907500,2.472907470703125,0.015830039978027344,-0.3215194046497345,1.4547836780548096
1617781901661943000,2.477943115234375,0.01578998565673828,-0.339977890253067,1.2800557613372803
1617781901666947800,2.48294775390625,0.0038099288940429688,-0.20549780130386353,1.0699043273925781
1617781901671983400,2.4879833984375,0.04201030731201172,-0.05453459173440933,0.9797878265380859
1617781901676988200,2.49298828125,0.025194168090820312,0.005374118685722351,0.8706622123718262
1617781901681993000,2.497992919921875,-0.01549530029296875,0.05565814673900604,0.8238906860351562
1617781901686998000,2.502998046875,0.01558685302734375,0.07475187629461288,1.0234566926956177
1617781901692033300,2.508033203125,0.05377960205078125,0.10091836005449295,1.1508376598358154
1617781901697068800,2.51306884765625,0.005860328674316406,0.08648969233036041,1.2683602571487427
1617781901702104000,2.51810400390625,0.034511566162109375,0.09119574725627899,1.4812240600585938
1617781901707139600,2.5231396484375,0.012926101684570312,0.14365911483764648,1.6555365324020386
1617781901712174800,2.5281748046875,0.017670631408691406,0.16260512173175812,1.745768427848816
1617781901717180000,2.533179931640625,0.0176239013671875,0.12643730640411377,1.7545548677444458
1617781901722215200,2.538215087890625,-0.0015411376953125,0.12358944118022919,1.694339632987976
1617781901727220000,2.543219970703125,-0.006339073181152344,0.05879812687635422,1.7513229846954346
1617781901732255500,2.54825537109375,0.036663055419921875,0.0348375178873539,1.6193363666534424
1617781901737260300,2.55326025390625,0.046143531799316406,0.029783714562654495,1.3487210273742676
1617781901742295800,2.5582958984375,-0.004138946533203125,0.060410648584365845,0.999915361404419
1617781901747331000,2.5633310546875,0.012575149536132812,0.08622398227453232,0.773761510848999
1617781901752336100,2.568336181640625,-0.016143798828125,0.09289414435625076,0.7035292387008667
1617781901757371400,2.573371337890625,0.04121685028076172,0.04473862797021866,0.49017325043678284
1617781901762345700,2.578345703125,0.014826774597167969,-0.015264090150594711,0.2271384596824646
1617781901767381200,2.58338134765625,-0.01868152618408203,-0.11809377372264862,0.2274610996246338
1617781901772416500,2.58841650390625,-0.004315376281738281,-0.16812393069267273,0.21564453840255737
1617781901777421600,2.593421630859375,0.03149986267089844,-0.1775985062122345,0.0535740852355957
1617781901782456800,2.598456787109375,0.05769157409667969,-0.17271123826503754,0.09514689445495605
1617781901787492400,2.603492431640625,-0.047580718994140625,-0.13679149746894836,0.5501204133033752
1617781901792527600,2.608527587890625,0.00026607513427734375,-0.1318601667881012,1.0400493144989014
1617781901797532700,2.61353271484375,-0.018897056579589844,-0.12931160628795624,1.543387532234192
1617781901802568000,2.61856787109375,0.03128814697265625,-0.09341093897819519,1.7779654264450073
1617781901807603500,2.623603515625,0.038367271423339844,0.018703758716583252,1.5628931522369385
1617781901812577800,2.628577880859375,0.02392864227294922,0.0803418755531311,1.3051903247833252
1617781901817613000,2.633613037109375,-0.043061256408691406,0.10851879417896271,1.1720964908599854
1617781901822648600,2.638648681640625,0.0047855377197265625,0.10787834972143173,1.1251847743988037
1617781901827653400,2.6436533203125,0.011915206909179688,0.01862349361181259,1.2387075424194336
1617781901832689000,2.64868896484375,0.0118560791015625,-0.0059067606925964355,1.4261822700500488
1617781901837724200,2.65372412109375,-0.10527610778808594,0.031531430780887604,1.5269423723220825
1617781901842759700,2.658759765625,0.021552085876464844,0.0978471040725708,1.4935745000839233
1617781901847764500,2.663764404296875,0.007134437561035156,0.13753993809223175,1.1116187572479248
1617781901852800000,2.668800048828125,0.009479522705078125,0.16541065275669098,0.7472521066665649
1617781901857804800,2.6738046875,0.004650115966796875,0.17636649310588837,0.307020366191864
1617781901862840000,2.678840087890625,-0.00732421875,0.12269073724746704,-0.11822712421417236
1617781901867845000,2.68384521484375,0.038064002990722656,0.054865870624780655,-0.5784670114517212
1617781901872880400,2.68888037109375,0.026021957397460938,-0.034287743270397186,-0.8393017053604126
1617781901877885400,2.693885498046875,-0.060088157653808594,-0.018081773072481155,-0.896605372428894
1617781901882920700,2.698920654296875,-0.05999946594238281,0.08436866849660873,-0.8821712136268616
1617781901887925800,2.70392578125,-0.01929759979248047,0.1293734610080719,-0.8628014922142029
1617781901892961000,2.7089609375,0.01894664764404297,0.08350082486867905,-0.8863171935081482
1617781901897996500,2.71399658203125,-0.036087989807128906,-0.07218409329652786,-0.6851516962051392
1617781901903031800,2.71903173828125,-0.033661842346191406,-0.23934392631053925,-0.3553135097026825
1617781901908036600,2.72403662109375,-0.000179290771484375,-0.4037041962146759,0.27288398146629333
1617781901913072000,2.729072021484375,-0.012180328369140625,-0.479388952255249,1.244175672531128
1617781901918077000,2.734076904296875,-0.03609943389892578,-0.4520837366580963,1.8074620962142944
1617781901923112400,2.739112548828125,0.014109611511230469,-0.3292507529258728,1.9130651950836182
1617781901928117200,2.7441171875,-0.01224517822265625,-0.11363048851490021,2.1331613063812256
1617781901933122000,2.7491220703125,-0.009871482849121094,0.13512051105499268,2.1927108764648438
1617781901938157600,2.754157470703125,0.04506683349609375,0.26870018243789673,1.8149994611740112
1617781901943193000,2.759193115234375,0.04254150390625,0.3658086359500885,1.2014734745025635
1617781901948228400,2.764228271484375,-0.060344696044921875,0.3932722210884094,0.7897137403488159
1617781901953233200,2.769233154296875,0.0018672943115234375,0.3013380169868469,0.4956287443637848
1617781901958268700,2.7742685546875,-0.06270694732666016,0.18792270123958588,0.20914369821548462
1617781901963273500,2.7792734375,-0.010052680969238281,0.07006343454122543,0.04502406716346741
1617781901968309000,2.78430908203125,0.07357215881347656,-0.07625142484903336,-0.2763713300228119
1617781901973344300,2.78934423828125,-0.019812583923339844,-0.21056850254535675,-0.6475188136100769
1617781901978349300,2.794349365234375,-0.00785064697265625,-0.24914458394050598,-0.6597663760185242
1617781901983354000,2.79935400390625,-0.048485755920410156,-0.22536197304725647,-0.7269377112388611
1617781901988359000,2.80435888671875,-0.007805824279785156,-0.1678239107131958,-0.4999578297138214
1617781901993394400,2.80939453125,-0.06518173217773438,-0.11738724261522293,-0.5624833703041077
1617781901998429700,2.8144296875,0.006588935852050781,-0.12902069091796875,-0.35448986291885376
1617781902003465200,2.81946533203125,0.04000091552734375,-0.1863655298948288,-0.2210458517074585
1617781902008500500,2.82450048828125,-0.019853591918945312,-0.25350484251976013,-0.16229820251464844
1617781902013505500,2.829505615234375,0.0016717910766601562,-0.2200109362602234,0.058940619230270386
1617781902018540800,2.834540771484375,-0.015100479125976562,-0.24170948565006256,0.1960678994655609
1617781902023515100,2.83951513671875,-0.024646759033203125,-0.20113544166088104,0.23953387141227722
1617781902028550700,2.844550537109375,0.03511524200439453,-0.10066208243370056,0.5743931531906128
1617781902033586000,2.8495859375,0.0111236572265625,-0.036546576768159866,0.9615392684936523
1617781902038591000,2.854591064453125,-0.055858612060546875,0.003558855503797531,1.645026445388794
1617781902043626200,2.859626220703125,-0.0056247711181640625,-0.03271465003490448,2.090859889984131
1617781902048661800,2.864661865234375,-0.03673267364501953,-0.08081633597612381,2.4758970737457275
1617781902053697000,2.869697021484375,0.03976631164550781,-0.16490191221237183,2.611541986465454
1617781902058702000,2.8747021484375,0.05161285400390625,-0.2683468759059906,2.2185652256011963
1617781902063707000,2.879706787109375,0.006056785583496094,-0.3431413471698761,1.666297435760498
1617781902068742400,2.884742431640625,0.0155792236328125,-0.21201545000076294,0.7322502136230469
1617781902073777700,2.889777587890625,0.09677696228027344,-0.10977928340435028,-0.1713375747203827
1617781902078782500,2.894782470703125,-0.09703922271728516,-0.026925887912511826,-0.8697826862335205
1617781902083787500,2.89978759765625,-0.053879737854003906,0.06795040518045425,-1.4882532358169556
1617781902088792300,2.904792236328125,-0.0992441177368164,0.1460421234369278,-1.9743163585662842
1617781902093858300,2.9098583984375,-0.03217506408691406,0.1238444373011589,-2.316209316253662
1617781902098893600,2.9148935546875,-0.02737712860107422,-0.060797132551670074,-2.009523391723633
1617781902103929000,2.91992919921875,-0.05365943908691406,-0.18759912252426147,-1.7703213691711426
1617781902108934000,2.924933837890625,-0.08944988250732422,-0.1875005066394806,-1.6586410999298096
1617781902113969400,2.929969482421875,-0.09648799896240234,-0.38320010900497437,-1.212785243988037
1617781902118974200,2.93497412109375,0.0470733642578125,-0.49738383293151855,-0.54071044921875
1617781902124009700,2.940009765625,-0.024736404418945312,-0.522771954536438,0.12346892058849335
1617781902129045000,2.945044921875,-0.022355079650878906,-0.5023875832557678,0.3614078760147095
1617781902134049800,2.9500498046875,0.00634002685546875,-0.5087651610374451,0.3020177483558655
1617781902139085300,2.955085205078125,-0.0104217529296875,-0.4220131039619446,0.1949293315410614
1617781902144090000,2.960090087890625,0.008687973022460938,-0.29968756437301636,-0.09129400551319122
1617781902149125600,2.965125732421875,-0.0008907318115234375,-0.17274467647075653,-0.17427431046962738
1617781902154130400,2.97013037109375,-0.0032958984375,-0.03633087873458862,-0.0443107932806015
1617781902159166000,2.975166015625,0.001468658447265625,0.037479907274246216,0.07854175567626953
1617781902164170800,2.980170654296875,0.0038156509399414062,0.03702164441347122,0.2204221934080124
1617781902169206300,2.985206298828125,-0.05596446990966797,0.05794482305645943,0.09456472098827362
1617781902174241500,2.990241455078125,-0.020053863525390625,0.08389438688755035,-0.021564707159996033
1617781902179246300,2.995246337890625,0.008631706237792969,0.07630449533462524,-0.5556465983390808
1617781902184251400,3.00025146484375,-0.115692138671875,0.0999230369925499,-0.9385282397270203
1617781902189286700,3.00528662109375,-0.07725906372070312,0.08305889368057251,-1.2589695453643799
1617781902194322200,3.010322265625,-0.007832527160644531,0.0543307401239872,-1.703110933303833
1617781902199357400,3.015357421875,-0.012620925903320312,0.004013169556856155,-1.9527794122695923
1617781902204362500,3.020362548828125,-0.02218914031982422,-0.06774118542671204,-2.04884672164917
1617781902209397800,3.025397705078125,-0.14645957946777344,-0.09863118827342987,-2.1208138465881348
1617781902214402600,3.030402587890625,-0.041062355041503906,-0.22482144832611084,-2.0517804622650146
1617781902219438000,3.03543798828125,-0.06012153625488281,-0.6161196231842041,-3.226126194000244
1617781902224473600,3.0404736328125,-0.03373527526855469,-0.7007565498352051,-1.9773619174957275
1617781902229478400,3.045478515625,-0.019354820251464844,-0.6154019832611084,-0.023040592670440674
1617781902234513700,3.050513671875,0.011736869812011719,-0.786184549331665,0.10215942561626434
1617781902239518700,3.055518798828125,-0.0026407241821289062,-0.796531081199646,0.3135221004486084
1617781902244554000,3.060553955078125,-0.024175643920898438,-0.6443919539451599,0.65151047706604
1617781902249559000,3.06555908203125,0.030797958374023438,-0.38721686601638794,0.876591682434082
1617781902254594300,3.07059423828125,-0.007513999938964844,-0.1403624564409256,0.7520633935928345
1617781902259629800,3.0756298828125,-0.04339122772216797,-0.47720107436180115,-2.617908239364624
1617781902264604200,3.080604248046875,-0.05288982391357422,0.7187424302101135,1.1448383331298828
1617781902269639400,3.085639404296875,-0.06716632843017578,0.8325237035751343,0.3047372102737427
1617781902274675000,3.090675048828125,0.02616119384765625,0.6688439249992371,-0.8351823091506958
1617781902279679700,3.0956796875,0.009357452392578125,0.4502393305301666,-1.6048791408538818
1617781902284684500,3.1006845703125,0.00453948974609375,0.20788928866386414,-2.246675491333008
1617781902289720000,3.105719970703125,-0.0934743881225586,-0.03176194056868553,-2.567600727081299
1617781902294755600,3.110755615234375,-0.086151123046875,-0.15130285918712616,-2.7350919246673584
1617781902299790800,3.115790771484375,-0.10753059387207031,-0.2559890151023865,-2.722806215286255
1617781902304826400,3.120826416015625,-0.07151985168457031,-0.38881269097328186,-2.248978853225708
1617781902309831200,3.1258310546875,0.0863485336303711,-0.423226922750473,-1.6205952167510986
1617781902314866400,3.130866455078125,-0.040485382080078125,-0.3693584203720093,-1.074720859527588
1617781902319902000,3.13590185546875,-0.057145118713378906,-0.21519504487514496,-0.5206672549247742
1617781902324876300,3.140876220703125,-0.00685882568359375,0.003259073942899704,-0.39277106523513794
1617781902329911800,3.145911865234375,-0.028364181518554688,0.21626177430152893,-0.4897080659866333
1617781902334947000,3.150947021484375,0.005127906799316406,0.38827499747276306,-0.6102265119552612
1617781902339982600,3.155982666015625,-0.037911415100097656,0.43810662627220154,-0.7375779151916504
1617781902345017900,3.161017822265625,0.06014251708984375,0.3635387420654297,-0.7380735278129578
1617781902350023000,3.16602294921875,-0.021236419677734375,0.1527218222618103,-0.7124724388122559
1617781902355058200,3.17105810546875,0.00031757354736328125,-0.06021302938461304,-0.4622957110404968
1617781902360063000,3.17606298828125,0.002704620361328125,-0.23218600451946259,-0.047688066959381104
1617781902365098500,3.181098388671875,0.028990745544433594,-0.3442714214324951,0.15823863446712494
1617781902370103300,3.186103271484375,-0.028435707092285156,-0.35360294580459595,0.010172098875045776
1617781902375138800,3.191138916015625,-0.05229663848876953,-0.31966692209243774,-0.30987000465393066
1617781902380143600,3.1961435546875,-0.021154403686523438,-0.24981261789798737,-0.8349147439002991
1617781902385148400,3.2011484375,-0.009167671203613281,-0.15380145609378815,-1.461812973022461
1617781902390184000,3.206183837890625,-0.045022010803222656,-0.1438552886247635,-1.8677138090133667
1617781902395219500,3.211219482421875,-0.023427963256835938,-0.18645524978637695,-2.1607887744903564
1617781902400254700,3.216254638671875,-0.056858062744140625,-0.2696121335029602,-2.3390491008758545
1617781902405259500,3.221259521484375,-0.037647247314453125,-0.2785036861896515,-2.397343158721924
1617781902410295000,3.226294921875,-0.02801990509033203,-0.19873139262199402,-2.3168554306030273
1617781902415299800,3.2312998046875,-0.02558135986328125,-0.12625029683113098,-2.23661732673645
1617781902420335400,3.23633544921875,-0.02793407440185547,-0.08281117677688599,-2.225705623626709
1617781902425370600,3.24137060546875,-0.05657768249511719,0.018073346465826035,-1.9231489896774292
1617781902430375700,3.246375732421875,-0.037369728088378906,0.004061136394739151,-1.5804150104522705
1617781902435411000,3.251410888671875,-0.0014486312866210938,-0.05303021892905235,-1.1019682884216309
1617781902440446500,3.256446533203125,0.0009431838989257812,-0.05512609705328941,-0.5500491857528687
1617781902445451300,3.261451171875,-0.011020660400390625,-0.01876790076494217,-0.18061770498752594
1617781902450486800,3.26648681640625,0.0009555816650390625,0.05582825094461441,-0.07723823189735413
1617781902455491600,3.27149169921875,-0.032517433166503906,0.18276184797286987,-0.06726178526878357
1617781902460526800,3.27652685546875,0.010554313659667969,0.24717652797698975,-0.08116886764764786
1617781902465532000,3.281531982421875,-0.030097007751464844,0.26596760749816895,-0.27434757351875305
1617781902470567200,3.286567138671875,-0.032444000244140625,0.14854392409324646,-0.4672727882862091
1617781902475602700,3.291602783203125,-0.03478813171386719,0.05764211341738701,-0.6574500203132629
1617781902480577000,3.296576904296875,-0.008441925048828125,-0.10250922292470932,-0.8471935987472534
1617781902485581800,3.301581787109375,-0.04190254211425781,-0.173849418759346,-0.8599442839622498
1617781902490617300,3.306617431640625,0.03705024719238281,-0.19958095252513885,-0.9158040881156921
1617781902495652600,3.311652587890625,-0.04905509948730469,-0.17036592960357666,-0.9381866455078125
1617781902500688100,3.316688232421875,-0.017913818359375,-0.16049034893512726,-0.9487353563308716
1617781902505723400,3.321723388671875,-0.0011425018310546875,-0.13874714076519012,-0.9305699467658997
1617781902510759000,3.326759033203125,-0.037003517150878906,-0.09055496752262115,-1.0367121696472168
1617781902515733200,3.331733154296875,-0.008259773254394531,0.002894788980484009,-1.1640989780426025
1617781902520768800,3.336768798828125,-0.03215217590332031,0.06266884505748749,-1.2984483242034912
1617781902525804000,3.341803955078125,-0.0823049545288086,0.12237715721130371,-1.241378903388977
1617781902530839600,3.346839599609375,-0.01764202117919922,0.11041953414678574,-1.1604903936386108
1617781902535874800,3.351874755859375,-0.017617225646972656,0.07196469604969025,-1.0700645446777344
1617781902540879600,3.356879638671875,-0.03431987762451172,-0.004534129053354263,-0.9964762926101685
1617781902545915100,3.3619150390625,-0.0031881332397460938,0.021884068846702576,-0.9469534158706665
1617781902550920000,3.366919921875,-0.007967948913574219,0.0457172691822052,-0.9716899991035461
1617781902555955500,3.37195556640625,-0.012740135192871094,0.06959708034992218,-1.0441174507141113
1617781902560960300,3.376960205078125,-0.007935523986816406,0.05522891506552696,-1.0185282230377197
1617781902565995800,3.381995849609375,-0.010313987731933594,-0.023562707006931305,-0.8638842105865479
1617781902571031000,3.387031005859375,0.0064334869384765625,-0.09258730709552765,-0.6593239307403564
1617781902576036000,3.3920361328125,0.03511333465576172,-0.12347862869501114,-0.43588632345199585
1617781902581041000,3.397041015625,-0.007964134216308594,-0.11372216045856476,-0.19853182137012482
1617781902586045700,3.402045654296875,-0.02468109130859375,-0.09438066929578781,-0.061988748610019684
1617781902591081200,3.407081298828125,0.0064220428466796875,0.0014293491840362549,0.005056343972682953
1617781902596116500,3.412116455078125,-0.031830787658691406,0.04438459128141403,-0.0021064281463623047
1617781902601152000,3.417152099609375,-0.024606704711914062,0.08736076205968857,-0.09299596399068832
1617781902606187300,3.422187255859375,-0.00066375732421875,0.1279633790254593,-0.1694307178258896
1617781902611192300,3.4271923828125,0.016066551208496094,0.14693433046340942,-0.2169099748134613
1617781902616227600,3.4322275390625,-0.010254859924316406,0.12040475010871887,-0.2571963965892792
1617781902621232600,3.437232666015625,0.011274337768554688,0.10353454947471619,-0.35966619849205017
1617781902626268000,3.442267822265625,0.0017042160034179688,0.11541654914617538,-0.4140954613685608
1617781902631303400,3.447303466796875,0.008862495422363281,0.08671532571315765,-0.4683658480644226
1617781902636277800,3.45227783203125,-0.010272026062011719,0.022044077515602112,-0.5633485317230225
1617781902641313000,3.45731298828125,-0.03655433654785156,-0.049875956028699875,-0.80893474817276
1617781902646348500,3.4623486328125,-0.04605388641357422,-0.17422990500926971,-1.147271990776062
1617781902651383800,3.4673837890625,-0.06990718841552734,-0.36055636405944824,-1.470752477645874
1617781902656388900,3.472388916015625,-0.024370193481445312,-0.3218621611595154,-0.6725108623504639
1617781902661393700,3.4773935546875,0.0043544769287109375,0.02282124012708664,0.14147590100765228
1617781902666398500,3.4823984375,0.011508941650390625,-0.017889074981212616,-0.02367457002401352
1617781902671434000,3.48743408203125,0.013884544372558594,-0.07767722010612488,-0.06425391137599945
1617781902676438800,3.492438720703125,0.016256332397460938,-0.04636570066213608,-0.04733051359653473
1617781902681474300,3.497474365234375,0.004286766052246094,-0.024694688618183136,-0.03522726520895958
1617781902686479000,3.50247900390625,-0.007679939270019531,-0.02459564059972763,-0.02560078725218773
1617781902691514600,3.5075146484375,0.011454582214355469,-0.01965884119272232,-0.04723995178937912
1617781902696550000,3.5125498046875,-0.0554962158203125,-0.029161833226680756,-0.042391449213027954
1617781902701585400,3.51758544921875,-0.014780044555664062,-0.041027843952178955,-0.023054547607898712
1617781902706620700,3.52262060546875,0.0354461669921875,-0.0003471970558166504,-0.027889125049114227
1617781902711625500,3.52762548828125,-0.00524139404296875,0.05218376964330673,-0.07093329727649689
1617781902716661000,3.532660888671875,0.016279220581054688,0.03765182942152023,-0.039723847061395645
1617781902721665800,3.537665771484375,-0.0076503753662109375,-0.003066331148147583,-0.025382596999406815
1617781902726670800,3.5426708984375,0.021051406860351562,-0.04129248112440109,-0.034953709691762924
1617781902731706000,3.5477060546875,0.009060859680175781,-0.04363933205604553,-0.04702620208263397
1617781902736741600,3.55274169921875,-0.007681846618652344,-0.036456428468227386,-0.0518527515232563
1617781902741777000,3.55777685546875,-0.041146278381347656,-0.007702462375164032,-0.04458069056272507
1617781902746812400,3.5628125,-0.010004043579101562,-0.002870626747608185,-0.051698558032512665
1617781902751817200,3.567817138671875,-0.00041961669921875,-0.02912917733192444,-0.05176077038049698
1617781902756822000,3.572822021484375,-0.0028104782104492188,-0.021848514676094055,-0.05658133700489998
1617781902761827000,3.5778271484375,0.028278350830078125,-0.02646014094352722,-0.0493810772895813
1617781902766831900,3.582831787109375,-0.010023117065429688,-0.045613162219524384,-0.06118388473987579
1617781902771867400,3.587867431640625,0.018682479858398438,-0.02165725827217102,-0.05388810485601425
1617781902776872200,3.5928720703125,-0.010035514831542969,-0.016779452562332153,-0.0465618371963501
1617781902781907500,3.597907470703125,-0.005236625671386719,-0.007216989994049072,-0.05601636320352554
1617781902786943000,3.60294287109375,-0.0028371810913085938,-0.03344331681728363,-0.053549930453300476
1617781902791978500,3.607978515625,0.00672149658203125,-0.03333272784948349,-0.032069507986307144
1617781902797013800,3.613013671875,0.028242111206054688,-0.0452202633023262,-0.015309352427721024
1617781902802018600,3.6180185546875,0.02581024169921875,-0.028441518545150757,-0.05124014616012573
1617781902807054000,3.62305419921875,0.009030342102050781,-0.044989824295043945,-0.02737126126885414
1617781902812089300,3.62808935546875,0.016195297241210938,-0.023375660181045532,0.03706350177526474
1617781902817094400,3.633094482421875,-0.0029506683349609375,0.0028859898447990417,0.28314918279647827
1617781902822129700,3.638129638671875,-0.000553131103515625,0.09133545309305191,0.5336659550666809
1617781902827134700,3.643134765625,0.01617908477783203,0.017003275454044342,0.7957043647766113
1617781902832170000,3.648169921875,-0.005358695983886719,-0.13866621255874634,0.727396547794342
1617781902837205500,3.65320556640625,-0.0005655288696289062,-0.052600063383579254,0.44645580649375916
1617781902842210300,3.658210205078125,0.025734901428222656,-0.03833508491516113,0.15409374237060547
1617781902847215000,3.663215087890625,0.03286170959472656,-0.08609631657600403,-0.10683333873748779
1617781902852250600,3.668250732421875,0.025656700134277344,-0.14091140031814575,-0.4297112226486206
1617781902857286000,3.673285888671875,0.044747352600097656,-0.08579608052968979,-0.6756706833839417
1617781902862321400,3.6783212890625,0.006424903869628906,0.08643127977848053,-0.6654133200645447
1617781902867326200,3.683326171875,-0.024651527404785156,0.11260799318552017,-0.7341052889823914
1617781902872361700,3.68836181640625,-0.038969993591308594,0.06702724099159241,-0.716493546962738
1617781902877397000,3.69339697265625,-0.03891468048095703,0.016782410442829132,-0.4120592474937439
1617781902882402000,3.698402099609375,-0.050805091857910156,-0.016639284789562225,0.025831732898950577
1617781902887406800,3.70340673828125,-0.014880180358886719,-0.03582243621349335,0.025686729699373245
1617781902892411600,3.70841162109375,-0.022020339965820312,-0.05480746179819107,-0.0174110010266304
1617781902897447200,3.713447265625,-0.0028667449951171875,-0.052355021238327026,-0.010203525424003601
1617781902902482400,3.718482421875,0.011475563049316406,-0.03309689462184906,-0.01974881812930107
1617781902907518000,3.72351806640625,-0.03157234191894531,-0.05692228674888611,-0.053203340619802475
1617781902912553200,3.72855322265625,-0.019583702087402344,-0.023355498909950256,-0.04819279536604881
1617781902917588700,3.733588623046875,-0.017164230346679688,-0.030463792383670807,-0.048131588846445084
1617781902922593500,3.738593505859375,-0.0027856826782226562,-0.020789727568626404,-0.08157442510128021
1617781902927598600,3.7435986328125,0.0020036697387695312,-0.013572834432125092,-0.06719209253787994
1617781902932633900,3.7486337890625,0.023517608642578125,-0.05900903791189194,-0.07210095226764679
1617781902937669400,3.75366943359375,-0.019560813903808594,-0.05174019932746887,-0.0530947744846344
1617781902942674200,3.758674072265625,0.004390716552734375,-0.022965848445892334,-0.05552505701780319
1617781902947709700,3.763709716796875,0.009154319763183594,-0.020583614706993103,-0.029205933213233948
1617781902952745000,3.768744873046875,0.04979705810546875,-0.03250584006309509,-0.04116986691951752
1617781902957749800,3.773749755859375,0.0066814422607421875,-0.04203086346387863,-0.0386216826736927
1617781902962785300,3.778785400390625,0.032973289489746094,-0.006134167313575745,-0.03612933307886124
1617781902967759600,3.783759521484375,0.030551910400390625,-0.006140433251857758,-0.01696072891354561
1617781902972795100,3.788795166015625,0.011371612548828125,-0.001310005784034729,-0.06473323702812195
1617781902977800000,3.793800048828125,-0.038852691650390625,-0.0393887534737587,-0.05743669718503952
1617781902982804700,3.7988046875,-0.02923107147216797,0.0012634992599487305,-0.059782691299915314
1617781902987840300,3.80384033203125,-0.04354572296142578,-0.04888474941253662,-0.023914847522974014
1617781902992845000,3.808844970703125,-0.007616996765136719,-0.032024845480918884,-0.03330056369304657
1617781902997911000,3.8139111328125,-0.00760650634765625,-0.03433719277381897,-0.04518085718154907
1617781903002946300,3.8189462890625,0.006745338439941406,-0.04141620546579361,-0.06448595225811005
1617781903007981800,3.82398193359375,0.009129524230957031,-0.05801866203546524,-0.06924264132976532
1617781903013017000,3.82901708984375,-0.0004367828369140625,-0.03162826597690582,-0.02856653928756714
1617781903017991700,3.83399169921875,0.018688201904296875,-0.026841938495635986,-0.040531765669584274
1617781903023027000,3.83902685546875,0.03300285339355469,-0.033971622586250305,-0.03331958130002022
1617781903028031700,3.84403173828125,-0.007681846618652344,-0.024319946765899658,-0.03799699246883392
1617781903033067300,3.8490673828125,0.025808334350585938,-0.00746607780456543,-0.021245747804641724
1617781903038102500,3.8541025390625,0.040114402770996094,-0.02417697012424469,-0.03092416748404503
1617781903043107600,3.859107666015625,-0.010149955749511719,-0.017114296555519104,-0.03343823924660683
1617781903048142800,3.864142822265625,0.00421905517578125,-0.005108371376991272,-0.06936167180538177
1617781903053178400,3.869178466796875,-0.014925956726074219,-0.012279331684112549,-0.06451673805713654
1617781903058183200,3.87418310546875,-0.019690513610839844,0.0021131038665771484,-0.033443473279476166
1617781903063218700,3.87921875,-0.029218673706054688,-0.016924910247325897,-0.03825347125530243
1617781903068223500,3.884223388671875,-0.01962566375732422,-0.00970398634672165,-0.054929208010435104
1617781903073259000,3.889259033203125,-0.00045871734619140625,0.009564913809299469,-0.05010310187935829
1617781903078294300,3.894294189453125,-0.007634162902832031,-0.045249320566654205,-0.04775547981262207
1617781903083299000,3.899299072265625,-0.014697074890136719,-0.02109415829181671,-0.02121865376830101
1617781903088334600,3.90433447265625,-0.0050716400146484375,-0.03514578193426132,-0.04241194203495979
1617781903093339400,3.90933935546875,-0.0406494140625,-0.0538991242647171,-0.030173640698194504
1617781903098375000,3.914375,-0.023680686950683594,-0.024972178041934967,-0.032328683882951736
1617781903103410200,3.91941015625,0.0073699951171875,-0.010524839162826538,-0.03437161073088646
1617781903108415200,3.924415283203125,-0.016432762145996094,-0.02948319911956787,-0.062556192278862
1617781903113450500,3.929450439453125,-0.006793022155761719,-0.02452731877565384,-0.04069967195391655
1617781903118455300,3.934455322265625,-0.0019855499267578125,-0.021935880184173584,-0.040364719927310944
1617781903123490800,3.93949072265625,0.01702117919921875,-0.031244754791259766,-0.03763124719262123
1617781903128526300,3.9445263671875,-0.006862640380859375,-0.03805962949991226,-0.006468862295150757
1617781903133531100,3.94953125,-0.004428863525390625,-0.01636507362127304,-0.013609040528535843
1617781903138566400,3.95456640625,0.033588409423828125,-0.03052414208650589,-0.03734683617949486
1617781903143571500,3.959571533203125,0.03568458557128906,-0.04684805870056152,-0.05124225094914436
1617781903148576300,3.964576171875,-0.0073451995849609375,-0.018005840480327606,-0.03886403515934944
1617781903153611800,3.96961181640625,-0.007285118103027344,-0.027452193200588226,-0.045593854039907455
1617781903158616600,3.974616455078125,-0.00009918212890625,-0.02974453568458557,-0.04749082773923874
1617781903163621400,3.979621337890625,0.011763572692871094,-0.055733099579811096,-0.004341859370470047
1617781903168657000,3.984656982421875,-0.0073261260986328125,-0.03157965838909149,-0.0753522589802742
1617781903173692200,3.989692138671875,-0.007266998291015625,-0.052791230380535126,-0.043677594512701035
1617781903178697200,3.994697265625,-0.014333724975585938,-0.019121944904327393,-0.02190001681447029
1617781903183732500,3.999732421875,-0.01659107208251953,-0.045120663940906525,-0.043034978210926056
1617781903188737300,4.0047373046875,-0.004574775695800781,-0.02339348942041397,-0.042758744210004807
1617781903193772800,4.009772705078125,-0.004536628723144531,-0.0019003301858901978,-0.028284333646297455
1617781903198808300,4.014808349609375,0.012116432189941406,0.009979046881198883,-0.047189295291900635
1617781903203843600,4.019843505859375,0.033382415771484375,0.002858787775039673,-0.025486089289188385
1617781903208879000,4.024879150390625,0.016489028930664062,0.005143120884895325,-0.05136929079890251
1617781903213884000,4.0298837890625,-0.0050144195556640625,0.005136802792549133,-0.0485699400305748
1617781903218919200,4.034919189453125,-0.03346443176269531,-0.01628679782152176,-0.03169728443026543
1617781903223954700,4.03995458984375,0.021424293518066406,0.00047488510608673096,-0.02435171976685524
1617781903228990200,4.044990234375,0.011743545532226562,-0.018586911261081696,-0.04076812416315079
1617781903233995000,4.0499951171875,-0.040587425231933594,-0.061048492789268494,-0.040458083152770996
1617781903239030300,4.0550302734375,-0.0022535324096679688,-0.04151160269975662,-0.07810400426387787
1617781903244004900,4.0600048828125,0.00014019012451171875,-0.05774208903312683,-0.1342858523130417
1617781903249040100,4.0650400390625,-0.0069866180419921875,-0.05481920391321182,-0.2091686725616455
1617781903254075600,4.07007568359375,-0.009304046630859375,-0.07812820374965668,-0.3499637246131897
1617781903259111000,4.07511083984375,-0.04483222961425781,-0.07048732042312622,-0.3423113524913788
1617781903264146400,4.080146484375,-0.02784442901611328,-0.041437357664108276,-0.1662825495004654
1617781903269151200,4.085151123046875,0.01987171173095703,0.006387479603290558,-0.008410081267356873
1617781903274186500,4.0901865234375,-0.032527923583984375,0.008627526462078094,0.13869406282901764
1617781903279191600,4.095191650390625,0.000988006591796875,0.03469371795654297,0.22767752408981323
1617781903284196400,4.1001962890625,0.02234649658203125,0.08428255468606949,0.2636139690876007
1617781903289201200,4.105201171875,0.0007944107055664062,0.02890840917825699,0.22341498732566833
1617781903294236700,4.110236572265625,0.01740264892578125,0.023877263069152832,0.15017041563987732
1617781903299272200,4.115272216796875,0.02676105499267578,-0.011863209307193756,0.03478618338704109
1617781903304307500,4.120307373046875,0.012284278869628906,-0.0024224668741226196,-0.006125055253505707
1617781903309312300,4.125312255859375,0.009806632995605469,-0.02388710528612137,-0.025224778801202774
1617781903314347800,4.13034765625,0.0026140213012695312,-0.014253146946430206,-0.049011487513780594
1617781903319383000,4.135383056640625,0.000217437744140625,-0.026054248213768005,-0.20310400426387787
1617781903324418600,4.14041845703125,0.012080192565917969,-0.032964564859867096,-0.374880850315094
1617781903329423400,4.14542333984375,0.014355659484863281,-0.03260201960802078,-0.4833693206310272
1617781903334459000,4.150458984375,-0.0023784637451171875,-0.034670427441596985,-0.5813368558883667
1617781903339463700,4.155463623046875,-0.016613006591796875,-0.046275533735752106,-0.4744575619697571
1617781903344499200,4.160499267578125,-0.004595756530761719,-0.03157402575016022,-0.2830066382884979
1617781903349504000,4.16550390625,0.000194549560546875,-0.05499139428138733,-0.17618785798549652
1617781903354539500,4.17053955078125,0.014431953430175781,-0.04501010477542877,-0.13905519247055054
1617781903359574800,4.17557470703125,-0.009429931640625,-0.01370471715927124,-0.15210583806037903
1617781903364579600,4.18057958984375,0.004902839660644531,-0.03732164204120636,-0.2219662219285965
1617781903369615000,4.185614990234375,-0.007016181945800781,-0.039427779614925385,-0.614188015460968
1617781903374620000,4.190619873046875,-0.04257774353027344,-0.010647900402545929,-0.8513889312744141
1617781903379655400,4.195655517578125,-0.05208015441894531,-0.04894363880157471,-0.9364604353904724
1617781903384660200,4.20066015625,-0.03049755096435547,-0.06576254218816757,-1.0286452770233154
1617781903389665000,4.2056650390625,-0.008941650390625,-0.0753714069724083,-1.006034016609192
1617781903394670000,4.210670166015625,0.010195732116699219,-0.08965954184532166,-1.0574575662612915
1617781903399675000,4.2156748046875,0.0149688720703125,-0.060762085020542145,-1.0276196002960205
1617781903404740900,4.220740966796875,-0.030478477478027344,-0.09163175523281097,-1.0743488073349
1617781903409776000,4.225776123046875,-0.01610088348388672,-0.12036069482564926,-1.1688125133514404
1617781903414811600,4.230811767578125,-0.00890350341796875,-0.17059847712516785,-1.3444842100143433
1617781903419816400,4.23581640625,-0.02801799774169922,-0.17757797241210938,-1.4769189357757568
1617781903424852000,4.24085205078125,-0.016035079956054688,-0.20841854810714722,-1.4896892309188843
1617781903429856800,4.245856689453125,-0.025569915771484375,-0.2081737518310547,-1.3660650253295898
1617781903434892300,4.250892333984375,0.015107154846191406,-0.2031978964805603,-1.2712831497192383
1617781903439927600,4.255927490234375,-0.0016450881958007812,-0.16000419855117798,-1.1526323556900024
1617781903444902000,4.26090185546875,-0.032733917236328125,-0.12414690852165222,-1.110551357269287
1617781903449937400,4.2659375,-0.03269481658935547,-0.08114523440599442,-1.082963466644287
1617781903454972700,4.27097265625,-0.04699516296386719,-0.03829268366098404,-1.0386179685592651
1617781903460008200,4.27600830078125,-0.0230255126953125,-0.01930161565542221,-0.9702914953231812
1617781903465043500,4.28104345703125,0.029607772827148438,0.025877751410007477,-1.036155104637146
1617781903470048500,4.286048583984375,-0.03260993957519531,0.05657657980918884,-1.176039695739746
1617781903475053300,4.29105322265625,-0.04451942443847656,0.06344239413738251,-1.2630443572998047
1617781903480058000,4.29605810546875,-0.020554542541503906,0.06317073106765747,-1.373828411102295
1617781903485063200,4.301063232421875,-0.0396728515625,0.09148771315813065,-1.4486603736877441
1617781903490098400,4.306098388671875,-0.027663230895996094,0.09348572790622711,-1.4302740097045898
1617781903495134000,4.311134033203125,-0.0013265609741210938,0.10745249688625336,-1.407254695892334
1617781903500169200,4.316169189453125,-0.0491485595703125,0.09035200625658035,-1.4202803373336792
1617781903505204700,4.321204833984375,-0.010836601257324219,0.10200484097003937,-1.3615829944610596
1617781903510240000,4.326239990234375,-0.01082611083984375,0.11368271708488464,-1.312529444694519
1617781903515245000,4.3312451171875,-0.006030082702636719,0.11096265912055969,-1.1990827322006226
1617781903520249900,4.336249755859375,-0.032329559326171875,0.15115156769752502,-1.0642199516296387
1617781903525285400,4.341285400390625,-0.025114059448242188,0.1601611077785492,-1.0465776920318604
1617781903530320600,4.346320556640625,-0.03226280212402344,0.12860316038131714,-1.0433510541915894
1617781903535356200,4.351356201171875,-0.025046348571777344,0.08997400850057602,-1.0711256265640259
1617781903540361000,4.35636083984375,-0.03937339782714844,0.10624705255031586,-1.022333025932312
1617781903545365800,4.36136572265625,-0.022577285766601562,0.04844999313354492,-0.9567106366157532
1617781903550401300,4.3664013671875,0.0013599395751953125,0.04097829759120941,-0.9317110776901245
1617781903555436500,4.3714365234375,0.010913848876953125,0.07658939063549042,-0.9472303986549377
1617781903560441600,4.376441650390625,0.03481006622314453,0.04762730002403259,-0.8263660073280334
1617781903565476900,4.381476806640625,-0.015451431274414062,0.0017309784889221191,-0.8347680568695068
1617781903570481700,4.386481689453125,-0.005866050720214844,-0.0466792955994606,-0.7575400471687317
1617781903575517200,4.39151708984375,0.0037069320678710938,-0.09726344048976898,-0.7952044606208801
1617781903580522000,4.39652197265625,0.041950225830078125,-0.028328433632850647,-0.7466325163841248
1617781903585527000,4.401527099609375,-0.08244991302490234,0.004533931612968445,-0.7389820218086243
1617781903590531800,4.40653173828125,-0.08713531494140625,0.035330720245838165,-0.9059695601463318
1617781903595567400,4.4115673828125,0.022970199584960938,-0.005530081689357758,-0.9605279564857483
1617781903600602600,4.4166025390625,-0.0846710205078125,-0.024833396077156067,-0.926750123500824
1617781903605638100,4.42163818359375,-0.0008716583251953125,-0.03685520589351654,-0.7802122235298157
1617781903610673400,4.42667333984375,0.03977012634277344,0.015484727919101715,-0.6794381737709045
1617781903615709000,4.431708984375,0.037322044372558594,0.08202332258224487,-0.7343041896820068
1617781903620713700,4.436713623046875,-0.03206920623779297,0.11023177951574326,-0.7552273869514465
1617781903625749200,4.441749267578125,-0.03203296661376953,0.07143973559141159,-1.0224061012268066
1617781903630784500,4.446784423828125,-0.020033836364746094,0.0279216468334198,-1.3250515460968018
1617781903635820000,4.451820068359375,-0.010457992553710938,-0.01565650850534439,-1.3428837060928345
1617781903640794400,4.45679443359375,-0.029575347900390625,-0.05922578275203705,-1.5351433753967285
1617781903645799200,4.461799072265625,-0.02954387664794922,-0.09787725657224655,-1.8518682718276978
1617781903650834700,4.466834716796875,-0.019944190979003906,-0.1508796215057373,-1.8793071508407593
1617781903655870000,4.471869873046875,-0.007979393005371094,-0.22537532448768616,-1.8852040767669678
1617781903660905500,4.476905517578125,-0.005584716796875,-0.2925776243209839,-1.7187944650650024
1617781903665940700,4.481940673828125,0.006377220153808594,-0.3740358054637909,-1.4425418376922607
1617781903670945500,4.486945556640625,-0.03190422058105469,-0.4003368616104126,-1.1953661441802979
1617781903675981000,4.49198095703125,-0.05099964141845703,-0.35480430722236633,-1.0850750207901
1617781903680985900,4.49698583984375,-0.050948143005371094,-0.2879166901111603,-0.8700867295265198
1617781903685991000,4.501990966796875,-0.0030727386474609375,-0.1921551525592804,-0.6505948901176453
1617781903690995700,4.50699560546875,-0.031769752502441406,-0.06284862011671066,-0.6914554238319397
1617781903696000500,4.51200048828125,0.08782005310058594,-0.05338917672634125,-0.6485577821731567
1617781903701066500,4.51706640625,-0.06772804260253906,-0.0154014453291893,-0.644143283367157
1617781903706102000,4.52210205078125,-0.03895759582519531,-0.013341337442398071,-0.8961994647979736
1617781903711137300,4.52713720703125,-0.0723867416381836,-0.04475703090429306,-1.028362512588501
1617781903716172800,4.5321728515625,-0.014928817749023438,-0.11681818962097168,-0.8348979353904724
1617781903721147100,4.537147216796875,0.02095508575439453,-0.14574837684631348,-0.5624330043792725
1617781903726182400,4.542182373046875,-0.024509429931640625,-0.16262134909629822,-0.37179264426231384
1617781903731187500,4.5471875,-0.0053615570068359375,-0.11977294832468033,-0.27691084146499634
1617781903736222700,4.55222265625,-0.029274940490722656,-0.08906246721744537,-0.2202499508857727
1617781903741258200,4.55725830078125,-0.00533294677734375,-0.03906124457716942,-0.2448088675737381
1617781903746293500,4.56229345703125,0.030542373657226562,-0.027397379279136658,-0.09215501695871353
1617781903751298600,4.567298583984375,-0.053198814392089844,0.012704167515039444,-0.2553902268409729
1617781903756333800,4.572333740234375,-0.0340118408203125,-0.05236397311091423,-0.3013327419757843
1617781903761369300,4.577369384765625,0.0066852569580078125,-0.12194576859474182,-0.3711891770362854
1617781903766374100,4.5823740234375,-0.019634246826171875,-0.2035776972770691,-0.4051286578178406
1617781903771409400,4.587409423828125,0.018634796142578125,-0.23959502577781677,-0.18091829121112823
1617781903776445000,4.59244482421875,0.03056812286376953,-0.2421313226222992,0.18903635442256927
1617781903781419300,4.597419189453125,-0.05077934265136719,-0.1970110386610031,0.21915699541568756
1617781903786424000,4.602424072265625,-0.0052928924560546875,-0.21402880549430847,-0.07603923976421356
1617781903791459600,4.60745947265625,-0.012472152709960938,-0.14735734462738037,-0.2538253366947174
1617781903796494800,4.612494873046875,-0.07941055297851562,-0.09975402057170868,-0.5414373874664307
1617781903801500000,4.6175,-0.14388751983642578,-0.2025693953037262,-0.9822624325752258
1617781903806535200,4.62253515625,-0.033715248107910156,-0.27883192896842957,-1.1932741403579712
1617781903811540200,4.627540283203125,-0.021717071533203125,-0.3001144230365753,-1.1025359630584717
1617781903816575500,4.632575439453125,0.007000923156738281,-0.3595975637435913,-0.739162027835846
1617781903821580500,4.63758056640625,0.05957984924316406,-0.36640962958335876,-0.23495632410049438
1617781903826615800,4.64261572265625,0.023642539978027344,-0.36370018124580383,0.2758820950984955
1617781903831651300,4.6476513671875,0.028392791748046875,-0.32769379019737244,0.7265889644622803
1617781903836686600,4.6526865234375,0.04508399963378906,-0.2752513885498047,0.9878527522087097
1617781903841722000,4.65772216796875,0.033072471618652344,-0.17766577005386353,1.5740776062011719
1617781903846727000,4.662726806640625,-0.05545616149902344,-0.10388043522834778,1.6550626754760742
1617781903851762400,4.667762451171875,0.021124839782714844,-0.11621089279651642,1.1926405429840088
1617781903856797700,4.672797607421875,-0.031513214111328125,-0.11410573869943619,1.2259373664855957
1617781903861833200,4.677833251953125,-0.0027818679809570312,-0.1453697383403778,1.5699238777160645
1617781903866838000,4.682838134765625,-0.005173683166503906,-0.10949036478996277,1.7104986906051636
1617781903871842800,4.6878427734375,-0.0625619888305664,-0.04002467170357704,1.3654632568359375
1617781903876878300,4.69287841796875,-0.07203865051269531,0.07977418601512909,1.0948249101638794
1617781903881883100,4.697883056640625,0.004570960998535156,0.18742212653160095,1.0658873319625854
1617781903886888000,4.702887939453125,0.049994468688964844,0.2995574474334717,1.187726616859436
1617781903891893000,4.70789306640625,0.030805587768554688,0.4041169285774231,1.058692455291748
1617781903896958700,4.712958740234375,-0.021842002868652344,0.3890529274940491,0.7333809733390808
1617781903901994200,4.717994140625,0.011651992797851562,0.3838076889514923,0.3483768701553345
1617781903907029800,4.72302978515625,0.02120685577392578,0.30421796441078186,-0.019385233521461487
1617781903912034600,4.72803466796875,-0.00033855438232421875,0.22223326563835144,-0.049090154469013214
1617781903917039400,4.733039306640625,-0.026641845703125,0.15971384942531586,-0.22947196662425995
1617781903922044400,4.73804443359375,0.006873130798339844,0.06144146993756294,-0.3137747645378113
1617781903927079700,4.74307958984375,-0.05292224884033203,0.006198398768901825,-0.5127667188644409
1617781903932115200,4.748115234375,-0.038514137268066406,-0.04898509755730629,-0.7500251531600952
1617781903937150500,4.753150390625,-0.04802227020263672,-0.06357361376285553,-0.5447437763214111
1617781903942186000,4.75818603515625,0.028555870056152344,-0.068597711622715,0.11926662176847458
1617781903947160300,4.763160400390625,0.03330421447753906,-0.025875668972730637,0.8064260482788086
1617781903952195600,4.768195556640625,-0.03609466552734375,0.03337787464261055,1.164803385734558
1617781903957231000,4.773231201171875,0.016559600830078125,0.07605309784412384,1.31919527053833
1617781903962266400,4.778266357421875,-0.0049762725830078125,0.07339070737361908,1.6337841749191284
1617781903967302000,4.783302001953125,0.04285717010498047,0.10669912397861481,1.7111341953277588
1617781903972276200,4.788276123046875,-0.01935577392578125,0.13046711683273315,1.6283477544784546
1617781903977311700,4.793311767578125,0.038051605224609375,0.17350886762142181,1.3256957530975342
1617781903982316500,4.798316650390625,0.004542350769042969,0.17812871932983398,1.2867205142974854
1617781903987351800,4.803351806640625,0.0021486282348632812,0.07754164934158325,1.3339632749557495
1617781903992356900,4.80835693359375,0.04519081115722656,-0.04426337406039238,0.9528957009315491
1617781903997392100,4.81339208984375,0.05471229553222656,-0.175670325756073,0.9431299567222595
1617781904002427600,4.818427734375,0.021167755126953125,-0.32606908679008484,1.062652826309204
1617781904007463000,4.823462890625,0.006804466247558594,-0.44288361072540283,1.3067002296447754
1617781904012498400,4.82849853515625,0.045052528381347656,-0.4877740144729614,1.4215848445892334
1617781904017533700,4.83353369140625,-0.03869819641113281,-0.4538518786430359,1.3881553411483765
1617781904022538800,4.838538818359375,0.03547954559326172,-0.3337657153606415,1.211064100265503
1617781904027574000,4.843573974609375,0.07609748840332031,-0.19490590691566467,1.2039841413497925
1617781904032579000,4.8485791015625,-0.0196380615234375,-0.11349036544561386,1.180209755897522
1617781904037614300,4.8536142578125,0.0019083023071289062,-0.1062224954366684,0.9892005920410156
1617781904042619100,4.858619140625,0.04255199432373047,-0.2162165492773056,1.0904061794281006
1617781904047654700,4.863654541015625,-0.005321502685546875,-0.2783520817756653,1.0143544673919678
1617781904052690000,4.86868994140625,-0.014880180358886719,-0.32597070932388306,0.7876769304275513
1617781904057695000,4.873695068359375,0.037750244140625,-0.4284156858921051,0.7455242872238159
1617781904062730200,4.878730224609375,-0.0005445480346679688,-0.5068892240524292,0.8300162553787231
1617781904067735300,4.8837353515625,-0.014892578125,-0.5420962572097778,0.8951994776725769
1617781904072770600,4.8887705078125,0.02100849151611328,-0.5627794861793518,0.9719604849815369
1617781904077775600,4.893775634765625,-0.02443695068359375,-0.5284700989723206,1.0100828409194946
1617781904082780400,4.898780517578125,-0.0076618194580078125,-0.4296112656593323,1.029192328453064
1617781904087785200,4.90378515625,0.030625343322753906,-0.3332800567150116,1.0005884170532227
1617781904092820700,4.90882080078125,-0.010062217712402344,-0.27534395456314087,0.9672295451164246
1617781904097856000,4.91385595703125,0.03301429748535156,-0.1911630928516388,0.9146811962127686
1617781904102891500,4.9188916015625,0.0401458740234375,-0.19082452356815338,1.2208237648010254
1617781904107926800,4.9239267578125,0.07119464874267578,-0.15238714218139648,1.5459649562835693
1617781904112962300,4.92896240234375,0.025681495666503906,-0.03990013897418976,1.7538164854049683
1617781904117967000,4.933967041015625,0.05435371398925781,0.10345390439033508,1.889508843421936
1617781904123002600,4.939002685546875,0.0064697265625,0.194010928273201,1.7692430019378662
1617781904128007400,4.94400732421875,0.006466865539550781,0.2079084813594818,1.52495276927948
1617781904133043000,4.94904296875,0.037537574768066406,0.1860276162624359,1.2499284744262695
1617781904138047700,4.9540478515625,0.023154258728027344,0.15198230743408203,1.1569887399673462
1617781904143083000,4.9590830078125,0.0040035247802734375,0.13706034421920776,0.9541274905204773
1617781904148088000,4.964088134765625,-0.012742996215820312,0.13918860256671906,0.6486976146697998
1617781904153092900,4.9690927734375,-0.0031499862670898438,0.12937059998512268,0.37234872579574585
1617781904158097700,4.97409765625,-0.029443740844726562,0.07405511289834976,0.31155264377593994
1617781904163133200,4.97913330078125,-0.03179359436035156,0.009227439761161804,0.3823302388191223
1617781904168168400,4.98416845703125,-0.012623786926269531,-0.06258581578731537,0.5560079216957092
1617781904173173500,4.989173583984375,-0.010213851928710938,-0.1869579404592514,0.906582236289978
1617781904178208800,4.994208740234375,0.013712882995605469,-0.23212876915931702,1.33806312084198
1617781904183213800,4.9992138671875,0.0017528533935546875,-0.20558814704418182,1.460288405418396
1617781904188249000,5.0042490234375,0.03284645080566406,-0.23886613547801971,1.4315824508666992
1617781904193254000,5.00925390625,0.011280059814453125,-0.24816130101680756,1.4267234802246094
1617781904198259000,5.014259033203125,-0.0030660629272460938,-0.2477102428674698,1.4578006267547607
1617781904203325000,5.019324951171875,0.04476642608642578,-0.25672250986099243,1.5870435237884521
1617781904208360200,5.024360107421875,0.061446189880371094,-0.22788700461387634,1.551292896270752
1617781904213395700,5.029395751953125,-0.02230548858642578,-0.1798686385154724,1.1974080801010132
1617781904218431000,5.034430908203125,0.0016393661499023438,-0.06720049679279327,0.6623096466064453
1617781904223435800,5.039435791015625,0.032733917236328125,0.019071314483880997,0.19955143332481384
1617781904228471300,5.04447119140625,-0.027085304260253906,0.11955978721380234,-0.2242690771818161
1617781904233476000,5.04947607421875,-0.03422260284423828,0.12681183218955994,-0.31286460161209106
1617781904238511600,5.05451171875,0.02082538604736328,0.026475723832845688,0.04595603048801422
1617781904243547000,5.059546875,0.01601696014404297,-0.04734218865633011,0.4929722249507904
1617781904248521200,5.064521240234375,0.013606071472167969,-0.030247170478105545,0.8414531350135803
1617781904253556700,5.069556640625,0.05425262451171875,0.005898144096136093,0.9908645153045654
1617781904258592300,5.07459228515625,-0.012774467468261719,0.013303492218255997,1.2046955823898315
1617781904263627500,5.07962744140625,-0.007970809936523438,0.10669919848442078,1.3584507703781128
1617781904268632300,5.08463232421875,0.0207366943359375,0.09692288935184479,1.4379411935806274
1617781904273637400,5.089637451171875,0.04701519012451172,0.010660335421562195,1.4982450008392334
1617781904278672600,5.094672607421875,0.03978157043457031,-0.05882537364959717,1.5081987380981445
1617781904283677700,5.099677734375,0.015816688537597656,-0.12593068182468414,1.3103835582733154
1617781904288713000,5.104712890625,-0.005724906921386719,-0.20016621053218842,1.057844638824463
1617781904293748500,5.10974853515625,-0.0057201385498046875,-0.23849362134933472,0.9418925046920776
1617781904298783700,5.11478369140625,0.03255176544189453,-0.269630491733551,0.8427627086639404
1617781904303819300,5.1198193359375,0.030112266540527344,-0.23619136214256287,0.8203898668289185
1617781904308793600,5.124793701171875,0.0037660598754882812,-0.15736286342144012,0.7692822217941284
1617781904313828900,5.129828857421875,0.010924339294433594,-0.14541620016098022,0.5770388245582581
1617781904318834000,5.134833984375,0.04439353942871094,-0.0975213497877121,0.47816696763038635
1617781904323838700,5.139838623046875,0.0060882568359375,-0.011430107057094574,0.357818067073822
1617781904328874200,5.144874267578125,-0.015451431274414062,-0.0019110552966594696,0.23294304311275482
1617781904333909500,5.149909423828125,0.03240489959716797,0.007610343396663666,0.1871774047613144
1617781904338945000,5.154945068359375,-0.008294105529785156,-0.035590726882219315,0.11746913194656372
1617781904343980300,5.159980224609375,-0.001102447509765625,-0.018762849271297455,0.07885861396789551
1617781904349015800,5.165015869140625,0.04672718048095703,0.04594293236732483,0.18610762059688568
1617781904354020600,5.1700205078125,0.04667377471923828,0.03422514349222183,0.3507063388824463
1617781904359056100,5.17505615234375,0.027495384216308594,0.04869987070560455,0.4983316659927368
1617781904364061000,5.18006103515625,0.005946159362792969,0.0774119645357132,0.7031934857368469
1617781904369065700,5.185065673828125,0.0011568069458007812,0.10150400549173355,0.7644451856613159
1617781904374070800,5.19007080078125,0.03462791442871094,0.10395152866840363,1.0621010065078735
1617781904379106000,5.19510595703125,0.04176616668701172,0.10155634582042694,1.2710586786270142
1617781904384110800,5.20011083984375,0.015413284301757812,0.14471179246902466,1.4941649436950684
1617781904389116000,5.205115966796875,0.04648876190185547,0.29301151633262634,1.5279192924499512
1617781904394181600,5.210181640625,0.027309417724609375,0.3572840690612793,0.7605983018875122
1617781904399186700,5.215186767578125,0.048796653747558594,0.11057443916797638,0.013447761535644531
1617781904404222000,5.220221923828125,0.015256881713867188,-0.0258297398686409,-0.010616332292556763
1617781904409257500,5.225257568359375,0.022421836853027344,0.03415484353899956,0.06086169183254242
1617781904414292700,5.230292724609375,0.005664825439453125,0.0342002771794796,0.04625508189201355
1617781904419297800,5.2352978515625,0.008035659790039062,0.03651690483093262,0.02698710560798645
1617781904424333000,5.2403330078125,0.008028030395507812,0.024479243904352188,0.026763081550598145
1617781904429368600,5.24536865234375,0.0032520294189453125,0.04360887408256531,0.04803141951560974
1617781904434403800,5.25040380859375,0.017591476440429688,0.017336882650852203,0.01198570430278778
1617781904439409000,5.255408935546875,0.015176773071289062,0.005451656877994537,0.04307979345321655
1617781904444423400,5.26042333984375,0.02473163604736328,0.04619795083999634,0.047699376940727234
1617781904449459000,5.265458984375,0.010346412658691406,0.0030809491872787476,0.02600860595703125
1617781904454494200,5.270494140625,0.0031728744506835938,0.007868785411119461,0.011508405208587646
1617781904459529700,5.27552978515625,-0.004010200500488281,0.012583047151565552,0.009121716022491455
1617781904464534500,5.280534423828125,0.02229785919189453,0.010158948600292206,0.00915805995464325
1617781904469570000,5.285570068359375,0.017485618591308594,0.012601982802152634,0.059330448508262634
1617781904474574800,5.290574951171875,0.005515098571777344,0.017408430576324463,0.03781136870384216
1617781904479610400,5.2956103515625,0.010278701782226562,0.01497773826122284,0.03294748067855835
1617781904484615200,5.300615234375,-0.0016813278198242188,0.050818029791116714,0.05199028551578522
1617781904489620000,5.305619873046875,0.015053749084472656,0.024513475596904755,0.059083372354507446
1617781904494625000,5.310625,-0.011269569396972656,0.04364468529820442,0.03756427764892578
1617781904499660300,5.315660400390625,0.029402732849121094,0.0555909238755703,0.0280105322599411
1617781904504695800,5.32069580078125,-0.011295318603515625,0.038758549839258194,0.023290827870368958
1617781904509731000,5.32573095703125,0.02459239959716797,0.045871712267398834,0.05442425608634949
1617781904514766600,5.3307666015625,0.043686866760253906,0.03145657852292061,0.011377230286598206
1617781904519771400,5.335771484375,0.002986907958984375,0.007567938417196274,0.030577167868614197
1617781904524776200,5.340776123046875,0.01493072509765625,0.026747502386569977,0.02338285744190216
1617781904529811700,5.345811767578125,-0.0018205642700195312,0.0028387196362018585,0.030500173568725586
1617781904534847000,5.350846923828125,-0.0018167495727539062,0.002870474010705948,0.0470845103263855
1617781904539882500,5.355882568359375,0.005364418029785156,0.026789039373397827,0.05414611101150513
1617781904544887300,5.36088720703125,0.041217803955078125,0.01722240447998047,0.015780985355377197
1617781904549922800,5.3659228515625,0.03161048889160156,0.01718597114086151,0.02298751473426819
1617781904554958000,5.3709580078125,0.0004825592041015625,0.02209208533167839,0.030158475041389465
1617781904559963100,5.375963134765625,-0.004302978515625,0.022101402282714844,0.01815316081047058
1617781904564998400,5.380998291015625,0.010045051574707031,0.03402158245444298,0.02998340129852295
1617781904569972700,5.38597265625,0.029175758361816406,0.041153084486722946,0.046596452593803406
1617781904575008300,5.39100830078125,0.0363006591796875,0.01002504676580429,0.03223106265068054
1617781904580043500,5.39604345703125,-0.004387855529785156,0.01962113380432129,0.036919087171554565
1617781904585048600,5.401048583984375,-0.01155853271484375,0.01718822866678238,0.04394109547138214
1617781904590053400,5.406053466796875,0.014761924743652344,0.04119260981678963,0.053399458527565
1617781904595088600,5.411088623046875,-0.011560440063476562,0.024417083710432053,0.03657899796962738
1617781904600124200,5.416124267578125,-0.01633167266845703,0.017298631370067596,0.048544809222221375
1617781904605159700,5.42115966796875,0.007598876953125,0.02443954348564148,0.055668577551841736
1617781904610195000,5.42619482421875,-0.01153564453125,0.021949559450149536,0.01250508427619934
1617781904615199700,5.43119970703125,0.009997367858886719,0.01956780254840851,0.03400397300720215
1617781904620235300,5.4362353515625,-0.013928413391113281,0.04349115118384361,0.05797283351421356
1617781904625240000,5.441239990234375,-0.028252601623535156,0.03868705779314041,0.0483926385641098
1617781904630245000,5.4462451171875,0.007643699645996094,0.050665054470300674,0.03865218162536621
1617781904635280400,5.4512802734375,-0.0019178390502929688,0.017131105065345764,0.05043037235736847
1617781904640316000,5.45631591796875,0.00047588348388671875,0.01240454614162445,0.040450409054756165
1617781904645351200,5.46135107421875,-0.0066509246826171875,0.00052637979388237,-0.0051561444997787476
1617781904650356200,5.466356201171875,0.0076427459716796875,0.0052051059901714325,0.03291445970535278
1617781904655361000,5.471361083984375,0.0052204132080078125,0.007573604583740234,0.006440222263336182
1617781904660396300,5.476396240234375,0.000431060791015625,0.04785129055380821,0.022697731852531433
1617781904665431800,5.481431884765625,0.0028066635131835938,0.02607046067714691,-0.00382329523563385
1617781904670467000,5.486467041015625,-0.018594741821289062,0.030718691647052765,0.03170350193977356
1617781904675472100,5.49147216796875,0.024306297302246094,0.030395403504371643,0.04333913326263428
1617781904680477000,5.496476806640625,0.005114555358886719,0.022869624197483063,0.054758429527282715
1617781904685481700,5.501481689453125,0.0074329376220703125,0.03690273314714432,0.04243434965610504
1617781904690517200,5.506517333984375,0.021622657775878906,0.015135888010263443,0.06352007389068604
1617781904695552500,5.511552490234375,0.009562492370605469,0.024446118623018265,0.03694732487201691
1617781904700588000,5.516588134765625,0.014234542846679688,0.024303622543811798,0.05327513813972473
1617781904705623600,5.52162353515625,0.004628181457519531,0.0527614951133728,0.029162973165512085
1617781904710628400,5.52662841796875,0.02832794189453125,0.0333273708820343,0.01958349347114563
1617781904715633200,5.531633056640625,0.042328834533691406,0.018692750483751297,0.05272270739078522
1617781904720638200,5.53663818359375,0.00635528564453125,0.004256393760442734,0.0380658358335495
1617781904725643000,5.54164306640625,-0.005562782287597656,-0.0029733851552009583,0.0140799880027771
1617781904730709000,5.546708984375,-0.010270118713378906,-0.012414626777172089,-0.00252532958984375
1617781904735744300,5.551744140625,-0.00305938720703125,0.001979731023311615,0.030850708484649658
1617781904740779800,5.55677978515625,0.004093170166015625,0.016240425407886505,0.0068743228912353516
1617781904745815000,5.56181494140625,-0.012571334838867188,0.0018237680196762085,0.04720957577228546
1617781904750789400,5.566789306640625,0.0017862319946289062,-0.0005320608615875244,0.042111799120903015
1617781904755825000,5.571824951171875,-0.014857292175292969,0.013799630105495453,0.036978572607040405
1617781904760860200,5.576860107421875,-0.021844863891601562,0.008944731205701828,0.015273883938789368
1617781904765865200,5.581865234375,0.004456520080566406,0.03267398849129677,0.03405405580997467
1617781904770900500,5.586900390625,0.002044677734375,0.03254350274801254,0.04086661338806152
1617781904775905500,5.591905517578125,-0.007475852966308594,0.044083330780267715,0.03582228720188141
1617781904780910300,5.596910400390625,0.016326904296875,0.04367472231388092,0.016555070877075195
1617781904785915100,5.6019150390625,-0.024164199829101562,0.03152124956250191,0.03540290892124176
1617781904790950700,5.60695068359375,-0.0121002197265625,0.00517682358622551,0.03515544533729553
1617781904795986000,5.61198583984375,-0.004874229431152344,0.0004329271614551544,0.018347203731536865
1617781904800991000,5.616990966796875,0.021282196044921875,0.017025765031576157,0.013489678502082825
1617781904806026200,5.622026123046875,0.004487037658691406,0.002679005265235901,0.020655542612075806
1617781904811061800,5.627061767578125,-0.0074329376220703125,-0.0045142509043216705,-0.003095760941505432
1617781904816097000,5.632096923828125,0.04961395263671875,-0.009297147393226624,0.013607114553451538
1617781904821132500,5.637132568359375,0.039696693420410156,-0.004458364099264145,0.006439760327339172
1617781904826167800,5.642167724609375,0.039363861083984375,0.014577504247426987,0.03975534439086914
1617781904831172900,5.6471728515625,0.015291213989257812,0.026316750794649124,0.02529434859752655
1617781904836177700,5.652177734375,-0.010955810546875,0.007023341953754425,0.029959499835968018
1617781904841213000,5.657212890625,-0.006114006042480469,0.01885214075446129,-0.00584760308265686
1617781904846218000,5.662218017578125,-0.015569686889648438,0.030593957751989365,-0.0008335113525390625
1617781904851253200,5.667253173828125,-0.0059375762939453125,0.037372540682554245,0.01817433536052704
1617781904856258300,5.67225830078125,-0.005889892578125,0.058333102613687515,0.03473624587059021
1617781904861293600,5.67729345703125,-0.01534271240234375,0.012723829597234726,0.02728883922100067
1617781904866329000,5.6823291015625,0.01090240478515625,0.04576949402689934,0.029432952404022217
1617781904871364400,5.6873642578125,-0.0034275054931640625,0.009673774242401123,0.01491786539554596
1617781904876399900,5.69239990234375,0.0013523101806640625,0.021428517997264862,0.062245383858680725
1617781904881404700,5.69740478515625,-0.005786895751953125,0.002255495637655258,0.019067838788032532
1617781904886409500,5.702409423828125,0.0037631988525390625,-0.011862680315971375,0.01660589873790741
1617781904891414500,5.70741455078125,0.008469581604003906,0.016790326684713364,0.023496344685554504
1617781904896449800,5.71244970703125,0.02502918243408203,-0.014103028923273087,0.028047293424606323
1617781904901485300,5.7174853515625,-0.013176918029785156,0.012194830924272537,-0.02432110905647278
1617781904906520600,5.7225205078125,0.008296966552734375,0.021634243428707123,-0.019266977906227112
1617781904911556000,5.72755615234375,-0.0131378173828125,-0.0022491998970508575,0.016535639762878418
1617781904916561000,5.732560791015625,-0.03201484680175781,-0.02117449790239334,0.016210541129112244
1617781904921596400,5.737596435546875,0.010984420776367188,-0.004383660852909088,0.030257299542427063
1617781904926601200,5.742601318359375,0.0037832260131835938,0.02886820212006569,0.025145411491394043
1617781904931636700,5.74763671875,0.0037527084350585938,0.009699583053588867,0.017766833305358887
1617781904936672000,5.752672119140625,0.00608062744140625,-0.011685952544212341,0.020026758313179016
1617781904941676800,5.7576767578125,-0.0010814666748046875,-0.006880458444356918,0.024606093764305115
1617781904946712300,5.76271240234375,0.008416175842285156,0.014552198350429535,0.038623809814453125
1617781904951717000,5.767717041015625,0.02022552490234375,0.016894429922103882,0.03354591131210327
1617781904956752600,5.772752685546875,0.001068115234375,0.01441439613699913,0.03085988759994507
1617781904961757400,5.77775732421875,-0.0013179779052734375,0.019004352390766144,-0.009680435061454773
1617781904966793000,5.78279296875,-0.006060600280761719,0.0022537298500537872,0.02848048508167267
1617781904971828200,5.787828125,-0.013138771057128906,-0.00729161873459816,0.05205872654914856
1617781904976802600,5.792802490234375,-0.01778125762939453,0.021297983825206757,0.035057663917541504
1617781904981838000,5.797838134765625,-0.0010042190551757812,0.018755771219730377,0.0514279305934906
1617781904986873300,5.802873291015625,0.01799297332763672,0.009158946573734283,0.034458041191101074
1617781904991878400,5.80787841796875,0.017841339111328125,0.0067962780594825745,0.012930333614349365
1617781904996913700,5.81291357421875,0.012941360473632812,0.030388209968805313,0.01281827688217163
1617781905001949200,5.81794921875,0.015209197998046875,0.022955868393182755,-0.0015732049942016602
1617781905006984400,5.822984375,-0.00153350830078125,0.0060419440269470215,-0.008613482117652893
1617781905011958800,5.827958740234375,0.036461830139160156,0.00835362821817398,0.008006110787391663
1617781905016994300,5.832994384765625,-0.0018224716186523438,0.0035953260958194733,0.022173672914505005
1617781905022029600,5.838029541015625,0.0100555419921875,0.03433992341160774,0.07184304296970367
1617781905027034600,5.84303466796875,-0.001888275146484375,0.026992011815309525,0.14473658800125122
1617781905032039400,5.848039306640625,0.00524139404296875,0.0007206834852695465,0.2740359604358673
1617781905037075000,5.853074951171875,0.026579856872558594,-0.0016720108687877655,0.3239075243473053
1617781905042110200,5.858110107421875,-0.009258270263671875,-0.0442701019346714,0.02192533016204834
1617781905047145700,5.863145751953125,-0.009176254272460938,0.008395131677389145,-0.2586272954940796
1617781905052150500,5.868150634765625,0.019395828247070312,-0.0010249242186546326,-0.27794063091278076
1617781905057186000,5.87318603515625,0.019235610961914062,0.01813041791319847,-0.08569268882274628
1617781905062221300,5.87822119140625,-0.014168739318847656,-0.008114762604236603,-0.009003952145576477
1617781905067256800,5.8832568359375,-0.021178245544433594,0.01334334909915924,0.04813385009765625
1617781905072261600,5.88826171875,-0.013875007629394531,-0.015152689069509506,0.08578115701675415
1617781905077266400,5.893266357421875,-0.013756752014160156,-0.04577873647212982,0.06358399987220764
1617781905082302000,5.898302001953125,0.00299072265625,-0.03814608231186867,0.05819179117679596
1617781905087337200,5.903337158203125,0.029085159301757812,-0.016306698322296143,-0.0017005056142807007
1617781905092342300,5.90834228515625,0.03357982635498047,-0.030330117791891098,0.048153653740882874
1617781905097377500,5.91337744140625,0.0000705718994140625,-0.07269266992807388,0.2590990364551544
1617781905102413000,5.9184130859375,-0.00705718994140625,-0.05777880549430847,0.25694721937179565
1617781905107417900,5.92341796875,-0.02836322784423828,-0.15214945375919342,0.4091171324253082
1617781905112453400,5.928453369140625,0.007472991943359375,-0.2861989140510559,0.9164061546325684
1617781905117458200,5.933458251953125,-0.009271621704101562,-0.2547851502895355,1.1951115131378174
1617781905122493400,5.938493408203125,-0.018829345703125,-0.17552921175956726,1.0740009546279907
1617781905127498500,5.94349853515625,0.0027265548706054688,-0.043685246258974075,0.9268518090248108
1617781905132533800,5.94853369140625,0.01467132568359375,-0.029256854206323624,0.7965879440307617
1617781905137538800,5.953538818359375,0.017047882080078125,-0.04601328447461128,0.6711629629135132
1617781905142574000,5.958573974609375,0.00029087066650390625,-0.07477900385856628,0.6011011600494385
1617781905147609600,5.963609619140625,0.026592254638671875,-0.10343652963638306,0.4928053021430969
1617781905152584000,5.968583984375,0.009807586669921875,-0.1343914419412613,0.39903879165649414
1617781905157619200,5.973619140625,0.0050067901611328125,-0.18932928144931793,0.4751558303833008
1617781905162624300,5.978624267578125,0.0026197433471679688,-0.15816150605678558,0.6372997164726257
1617781905167659500,5.983659423828125,0.04086494445800781,-0.09343535453081131,0.8901079893112183
1617781905172695000,5.988695068359375,0.04559516906738281,0.03112788498401642,1.0589599609375
1617781905177730300,5.993730224609375,0.009660720825195312,0.14107853174209595,1.0960161685943604
1617781905182735400,5.9987353515625,0.02639007568359375,0.24118366837501526,1.0829205513000488
1617781905187740200,6.003740234375,0.014386177062988281,0.2789894938468933,1.0555431842803955
1617781905192745000,6.008744873046875,0.0000209808349609375,0.24989068508148193,0.9254056215286255
1617781905197811000,6.01381103515625,-0.0047702789306640625,0.16336463391780853,0.6662552356719971
1617781905202815700,6.018815673828125,-0.007166862487792969,0.024076003581285477,0.29755160212516785
1617781905207851300,6.023851318359375,0.007176399230957031,-0.062364235520362854,0.022475063800811768
1617781905212856000,6.02885595703125,-0.019147872924804688,-0.08420825004577637,-0.07035276293754578
1617781905217891600,6.0338916015625,0.007168769836425781,-0.043690476566553116,0.030628085136413574
1617781905222926800,6.0389267578125,0.033453941345214844,0.027829419821500778,0.028539806604385376
1617781905227932000,6.043931884765625,-0.0048503875732421875,0.07046973705291748,0.08864064514636993
1617781905232936700,6.048936767578125,-0.02160167694091797,0.09408482909202576,0.10561780631542206
1617781905237972000,6.053971923828125,-0.03832054138183594,0.13438019156455994,0.0246831476688385
1617781905243007500,6.059007568359375,-0.023924827575683594,0.1602420210838318,0.21381548047065735
1617781905248042800,6.064042724609375,0.016745567321777344,0.17663134634494781,0.4360522925853729
1617781905253047800,6.0690478515625,-0.026317596435546875,0.17373459041118622,0.7082905769348145
1617781905258083000,6.0740830078125,0.009563446044921875,0.14939257502555847,0.8225913047790527
1617781905263118600,6.07911865234375,0.02629375457763672,0.20661726593971252,0.8839650750160217
1617781905268153900,6.08415380859375,0.042990684509277344,0.2422170341014862,0.8902453780174255
1617781905273159000,6.089158935546875,0.030973434448242188,0.2777533531188965,0.7672287225723267
1617781905278163700,6.094163818359375,-0.021677017211914062,0.2104482352733612,0.7425054311752319
1617781905283168500,6.09916845703125,-0.0025167465209960938,0.23657265305519104,0.832766592502594
1617781905288173600,6.104173583984375,-0.02403736114501953,0.22917070984840393,0.8343703150749207
1617781905293239300,6.1092392578125,0.0046672821044921875,0.16687223315238953,0.6925729513168335
1617781905298274800,6.11427490234375,0.0979166030883789,0.14035874605178833,0.5583597421646118
1617781905303279600,6.119279541015625,-0.01700592041015625,0.14237205684185028,0.488884836435318
1617781905308315100,6.124315185546875,-0.016998291015625,0.11354361474514008,0.5247397422790527
1617781905313350400,6.129350341796875,-0.005028724670410156,0.0920451432466507,0.512799084186554
1617781905318386000,6.134385986328125,0.045174598693847656,0.04174822196364403,0.4029372036457062
1617781905323390700,6.139390625,-0.03619861602783203,-0.020479820668697357,0.5273557305335999
1617781905328426200,6.14442626953125,0.028406143188476562,-0.07290297746658325,0.8452507257461548
1617781905333431000,6.14943115234375,0.05464935302734375,-0.1348130851984024,0.9474613070487976
1617781905338466600,6.154466552734375,0.021104812622070312,-0.15833723545074463,0.8725932836532593
